# fs=400.0
t,ax,ay,az
0.042952,450,-86,2284
0.043079,452,-89,2318
0.043182,455,-90,2306
0.043284,459,-97,2304
0.043383,452,-88,2304
0.043482,455,-94,2306
0.043581,440,-90,2308
0.043680,457,-92,2304
0.043787,454,-82,2304
0.043894,455,-89,2306
0.043993,453,-78,2310
0.044093,448,-96,2299
0.044199,451,-100,2323
0.044298,437,-87,2303
0.044398,441,-87,2312
0.044497,451,-83,2302
0.044596,453,-84,2310
0.044694,449,-79,2308
0.044803,456,-90,2320
0.044903,471,-84,2307
0.045067,460,-88,2302
0.045168,457,-88,2320
0.045267,460,-88,2307
0.045367,445,-80,2308
0.045466,455,-86,2299
0.045601,446,-76,2325
0.045708,447,-82,2299
0.045806,455,-84,2318
0.045899,453,-75,2301
0.045992,442,-84,2305
0.046086,453,-91,2291
0.107154,455,-89,2319
0.107285,455,-90,2315
0.107396,444,-93,2315
0.107505,443,-90,2310
0.107611,454,-97,2304
0.107738,456,-88,2309
0.107844,457,-88,2315
0.107950,463,-87,2299
0.108058,452,-76,2305
0.108164,459,-97,2313
0.108269,451,-89,2289
0.108374,457,-98,2307
0.108480,452,-91,2308
0.108592,451,-104,2313
0.108722,450,-94,2302
0.108837,461,-101,2299
0.108947,443,-99,2321
0.109055,452,-94,2314
0.109160,455,-81,2312
0.109306,451,-91,2291
0.109413,456,-91,2322
0.109520,454,-97,2306
0.162074,459,-98,2310
0.162185,459,-90,2298
0.162280,448,-85,2300
0.162373,443,-74,2298
0.162464,446,-86,2296
0.162558,457,-95,2303
0.162650,457,-96,2315
0.162771,450,-88,2310
0.162871,455,-81,2309
0.162970,440,-89,2312
0.163070,448,-81,2306
0.163169,447,-82,2309
0.163269,451,-87,2323
0.163367,458,-90,2317
0.163465,448,-84,2304
0.163564,450,-90,2324
0.163662,463,-85,2298
0.163783,458,-81,2298
0.163883,447,-89,2323
0.163981,448,-79,2288
0.164079,464,-81,2294
0.164179,450,-84,2305
0.164280,447,-79,2303
0.164379,444,-93,2295
0.164479,453,-79,2312
0.164578,443,-90,2308
0.164677,446,-93,2315
0.164781,454,-90,2289
0.164880,451,-89,2307
0.203580,445,-98,2304
0.203733,445,-95,2312
0.203849,450,-79,2305
0.203958,449,-91,2310
0.204065,458,-94,2310
0.204174,447,-93,2299
0.204281,456,-91,2314
0.204387,458,-92,2311
0.204494,445,-90,2313
0.204602,456,-92,2302
0.204718,458,-86,2288
0.204825,459,-89,2298
0.204932,457,-97,2293
0.205039,449,-82,2304
0.205139,454,-83,2309
0.205245,448,-101,2302
0.205347,454,-98,2314
0.205448,451,-94,2309
0.224352,454,-76,2314
0.224485,445,-87,2298
0.224598,457,-86,2314
0.265270,452,-82,2290
0.265391,454,-90,2301
0.265494,459,-97,2293
0.265594,451,-90,2295
0.265696,445,-95,2296
0.265805,467,-95,2304
0.265904,445,-92,2318
0.266003,454,-91,2303
0.266115,447,-85,2309
0.266216,445,-86,2305
0.266314,464,-85,2298
0.266413,452,-89,2319
0.266511,448,-88,2303
0.266609,454,-86,2306
0.266712,445,-87,2326
0.266810,448,-93,2297
0.266909,462,-67,2298
0.267006,453,-91,2300
0.313566,456,-101,2306
0.313667,448,-93,2316
0.313774,450,-89,2313
0.313860,456,-91,2305
0.313943,465,-95,2289
0.314025,449,-89,2303
0.314115,465,-101,2304
0.314233,449,-79,2302
0.314315,462,-80,2306
0.314396,454,-77,2313
0.314480,449,-96,2290
0.314562,450,-94,2318
0.314644,445,-85,2320
0.314730,450,-83,2284
0.314813,468,-84,2290
0.314896,446,-89,2298
0.314978,452,-87,2301
0.315062,453,-85,2308
0.315145,447,-93,2306
0.315228,461,-92,2302
0.315310,449,-91,2291
0.348205,450,-95,2313
0.348302,442,-93,2305
0.348387,452,-90,2313
0.348469,454,-93,2306
0.348551,449,-78,2311
0.348634,455,-89,2298
0.348722,455,-85,2312
0.348803,445,-89,2311
0.348885,454,-80,2303
0.348966,447,-93,2307
0.349047,451,-87,2312
0.349128,452,-83,2298
0.349209,457,-78,2305
0.349290,457,-78,2307
0.349372,453,-91,2309
0.367340,451,-81,2307
0.367441,449,-85,2307
0.367527,454,-92,2301
0.367612,435,-88,2298
0.367695,461,-80,2309
0.367792,451,-81,2310
0.367881,460,-95,2303
0.368024,467,-88,2297
0.392052,459,-82,2295
0.392147,448,-97,2298
0.392229,448,-89,2305
0.392308,437,-98,2311
0.392391,460,-100,2336
0.392474,446,-102,2345
0.392553,447,-91,2279
0.392635,451,-108,2278
0.392721,447,-91,2311
0.392798,463,-94,2316
0.440440,462,-89,2294
0.440599,451,-97,2299
0.440724,446,-92,2304
0.440821,454,-97,2311
0.440916,454,-83,2308
0.441010,452,-92,2302
0.441103,463,-78,2299
0.441196,451,-90,2304
0.441291,457,-90,2310
0.441383,440,-95,2316
0.441476,440,-88,2296
0.441569,445,-85,2298
0.441662,459,-92,2306
0.441791,452,-83,2304
0.441884,450,-83,2294
0.441978,459,-82,2307
0.475157,449,-69,2293
0.475257,455,-92,2300
0.475343,447,-95,2300
0.475426,461,-83,2306
0.475510,456,-87,2313
0.475593,447,-75,2302
0.475675,460,-80,2314
0.475781,457,-79,2313
0.475866,466,-86,2299
0.475950,461,-98,2302
0.476034,466,-87,2298
0.476120,449,-94,2295
0.476210,451,-79,2295
0.476299,453,-90,2318
0.476388,448,-78,2293
0.476476,447,-82,2324
0.502341,456,-83,2297
0.502463,441,-106,2295
0.502559,443,-76,2312
0.502659,466,-105,2317
0.502759,449,-85,2306
0.502853,447,-95,2301
0.502946,455,-96,2304
0.503040,453,-93,2294
0.503133,445,-95,2322
0.503226,443,-79,2315
0.544534,443,-99,2307
0.544632,455,-86,2300
0.544723,443,-91,2285
0.544810,442,-105,2300
0.544892,446,-82,2305
0.544979,458,-104,2308
0.545062,453,-90,2301
0.545143,451,-84,2294
0.545224,447,-89,2319
0.587287,450,-91,2301
0.587389,444,-87,2307
0.587474,453,-90,2301
0.587559,460,-84,2318
0.587641,461,-93,2306
0.587741,449,-90,2301
0.587824,451,-87,2293
0.587906,454,-79,2310
0.587988,459,-87,2299
0.588070,459,-91,2287
0.588154,453,-93,2287
0.588237,453,-89,2287
0.588319,462,-89,2300
0.588402,446,-92,2302
0.588485,455,-96,2297
0.588567,450,-91,2299
0.588650,453,-87,2317
0.588738,461,-87,2307
0.588820,451,-83,2321
0.588902,451,-84,2307
0.588993,456,-89,2298
0.589081,451,-80,2299
0.589169,434,-84,2289
0.589257,449,-80,2309
0.624905,445,-84,2305
0.625018,443,-85,2306
0.625114,438,-85,2318
0.625207,458,-95,2315
0.625301,443,-79,2333
0.625400,447,-109,2288
0.625493,445,-93,2297
0.625588,465,-80,2304
0.625681,461,-86,2308
0.625786,457,-102,2293
0.625879,445,-92,2298
0.645269,460,-87,2304
0.645382,454,-93,2309
0.670819,451,-96,2312
0.715320,441,-101,2327
0.715424,449,-91,2307
0.715518,459,-100,2308
0.715608,451,-85,2317
0.715694,458,-87,2306
0.715816,453,-91,2327
0.715903,451,-84,2310
0.715989,465,-81,2296
0.716077,448,-84,2303
0.716164,452,-93,2294
0.716250,453,-82,2302
0.716339,457,-88,2301
0.716427,448,-91,2310
0.716514,444,-88,2291
0.716601,457,-81,2315
0.716687,466,-88,2305
0.716791,450,-97,2308
0.716884,453,-95,2313
0.716975,448,-103,2313
0.717062,448,-92,2302
0.759337,442,-95,2306
0.759437,448,-91,2295
0.759524,455,-94,2315
0.759606,465,-98,2298
0.759687,461,-87,2294
0.759801,453,-97,2303
0.759885,440,-86,2300
0.759966,454,-85,2307
0.760047,461,-80,2305
0.760129,455,-88,2320
0.760211,460,-96,2307
0.760293,449,-94,2303
0.760374,444,-95,2321
0.760456,449,-91,2307
0.760538,453,-90,2305
0.760620,460,-90,2301
0.801383,460,-80,2299
0.801507,452,-89,2301
0.801611,453,-85,2316
0.834802,454,-96,2301
0.834916,449,-87,2310
0.835013,458,-86,2311
0.835109,445,-92,2298
0.835205,453,-80,2301
0.835299,444,-89,2318
0.855291,448,-89,2297
0.855411,458,-90,2312
0.855521,461,-88,2317
0.855626,462,-77,2296
0.855740,459,-78,2307
0.894768,458,-90,2304
0.894875,453,-87,2297
0.894966,442,-101,2307
0.895048,448,-88,2293
0.895130,444,-91,2302
0.895211,449,-83,2301
0.895293,451,-93,2306
0.895374,449,-93,2301
0.895456,450,-80,2295
0.895540,460,-81,2297
0.895622,464,-91,2309
0.895714,447,-76,2304
0.895805,454,-98,2309
0.895887,441,-91,2309
0.895969,442,-78,2306
0.896055,446,-100,2299
0.896136,452,-76,2309
0.896216,459,-84,2309
0.896297,448,-82,2310
0.896378,450,-87,2300
0.896461,458,-91,2298
0.896542,454,-94,2315
0.896624,452,-88,2313
0.896716,455,-81,2313
0.896797,446,-80,2298
0.896879,455,-80,2313
0.896960,444,-79,2305
0.897042,456,-92,2289
0.930200,457,-86,2310
0.930303,451,-94,2296
0.930394,455,-91,2305
0.930483,451,-91,2318
0.930570,450,-75,2297
0.930660,448,-92,2301
0.930774,441,-95,2305
0.930863,450,-85,2290
0.930952,455,-88,2307
0.931035,442,-95,2318
0.931117,438,-93,2307
0.931198,459,-86,2314
0.931281,464,-86,2287
0.949336,449,-83,2313
0.949435,452,-88,2316
0.949521,460,-96,2296
0.949605,452,-90,2299
0.949687,450,-95,2304
0.949803,448,-97,2307
0.949886,457,-81,2315
0.949968,453,-84,2288
0.974545,453,-89,2310
0.974644,450,-91,2315
0.974756,457,-89,2333
0.974842,444,-98,2295
0.974923,436,-92,2308
0.975004,459,-84,2304
0.975086,456,-90,2300
0.975167,452,-90,2317
1.020469,451,-86,2302
1.020639,450,-80,2302
1.020803,453,-87,2303
1.020945,450,-86,2284
1.021049,462,-91,2296
1.021143,448,-87,2307
1.021237,466,-86,2303
1.021329,446,-85,2320
1.021424,448,-90,2300
1.021517,452,-85,2305
1.021610,447,-85,2315
1.021712,458,-93,2307
1.021806,441,-94,2297
1.021899,444,-90,2269
1.021988,520,-37,2321
1.022083,563,-125,2282
1.022171,390,-84,2340
1.022262,359,-160,2287
1.022350,523,-21,2328
1.066244,482,-64,2311
1.066350,432,-115,2311
1.066436,528,-66,2327
1.066524,404,-156,2292
1.066614,482,-461,2317
1.066709,601,-672,2293
1.066797,536,-795,2304
1.066890,519,-807,2272
1.066986,491,-719,2307
1.067081,447,-557,2306
1.067174,419,-502,2316
1.067267,448,-391,2319
1.067362,562,-269,2285
1.067455,466,-268,2356
1.067548,487,-249,2321
1.067641,654,-201,2251
1.097947,569,-169,2359
1.098058,582,-66,2324
1.098149,693,348,2292
1.098239,331,430,2327
1.098327,352,349,2299
1.098415,395,455,2316
1.098510,408,376,2264
1.098603,364,389,2297
1.098690,394,296,2294
1.098791,416,211,2297
1.098876,425,97,2277
1.098960,428,17,2304
1.099049,434,-36,2307
1.099137,417,-59,2298
1.099225,441,-90,2306
1.138058,478,-70,2316
1.138173,510,-169,2309
1.138268,513,-152,2295
1.138360,468,-121,2323
1.138448,518,-95,2310
1.138535,480,-69,2303
1.138623,510,-93,2302
1.138718,460,-68,2285
1.138806,403,23,2295
1.138897,447,55,2303
1.138987,419,42,2310
1.139075,454,23,2291
1.139168,453,-19,2302
1.139260,421,-44,2295
1.139353,432,-44,2306
1.139446,451,-35,2299
1.139538,434,-44,2313
1.173182,454,-32,2303
1.173303,443,-61,2309
1.173408,458,-83,2316
1.173508,469,-85,2310
1.173609,431,-49,2294
1.173721,369,-54,2311
1.173822,375,-14,2314
1.173926,383,-49,2306
1.174034,401,-41,2323
1.174145,400,-53,2311
1.174255,414,-47,2302
1.174363,407,-58,2302
1.174471,423,-72,2291
1.193991,441,-89,2317
1.194120,427,-118,2317
1.194227,426,-94,2293
1.194334,425,-102,2308
1.194439,427,-102,2306
1.194546,428,-104,2304
1.194648,431,-88,2295
1.194756,416,-92,2286
1.194863,495,-105,2360
1.194954,460,7,2293
1.233746,483,-69,2292
1.233854,441,-88,2298
1.233948,460,-95,2308
1.234038,455,-81,2295
1.234125,455,-80,2301
1.234213,457,-86,2318
1.234300,472,-84,2292
1.234387,456,-92,2303
1.234474,448,-79,2293
1.234561,436,-81,2298
1.234648,454,-83,2301
1.234750,451,-86,2305
1.234844,452,-108,2299
1.234937,467,-75,2295
1.235029,455,-93,2314
1.235121,445,-86,2306
1.273153,440,-86,2285
1.273259,448,-90,2303
1.273350,440,-92,2305
1.273443,446,-100,2288
1.273530,434,-98,2300
1.273618,431,-88,2306
1.273738,405,-111,2301
1.273832,379,-119,2312
1.273924,337,-119,2301
1.274018,344,-119,2313
1.274112,321,-124,2315
1.274203,313,-133,2294
1.274294,347,-112,2299
1.274385,374,-148,2293
1.274463,457,7,2305
1.274552,709,208,2300
1.313728,586,40,2302
1.313839,696,-55,2303
1.313941,1047,-137,2310
1.314032,834,-49,2297
1.314125,599,-223,2337
1.314219,712,-271,2298
1.314311,837,-357,2295
1.314403,804,-305,2307
1.314495,701,-186,2288
1.314578,534,18,2390
1.314669,519,-42,2271
1.314763,579,-20,2252
1.314846,522,40,2272
1.314929,534,70,2278
1.315012,599,80,2331
1.315095,600,67,2307
1.356281,570,98,2310
1.356388,513,117,2358
1.356478,508,103,2392
1.356561,476,85,2399
1.356653,593,150,2379
1.356749,581,219,2462
1.356838,436,219,2474
1.356929,345,117,2476
1.357029,172,-185,2447
1.357128,368,-764,1787
1.357227,249,-340,2211
1.357320,71,-259,2557
1.357413,52,-123,2653
1.357511,109,-182,2617
1.357611,268,-273,2516
1.357716,411,-237,2769
1.374503,365,-181,2399
1.374640,481,-184,2503
1.374767,461,-53,2412
1.374878,370,-35,2451
1.374988,270,-76,2366
1.375098,259,-96,2343
1.375213,297,-107,2271
1.375322,302,-82,2260
1.398534,379,-40,2249
1.398634,343,-33,2244
1.398723,261,-3,2305
1.398806,206,-4,2357
1.398894,185,-38,2470
1.398981,153,-79,2584
1.399073,140,-114,2706
1.399165,145,-133,2773
1.399256,100,-118,2864
1.438626,59,-138,2931
1.438740,-94,-224,3152
1.438840,-226,-346,3130
1.438938,-160,-262,3222
1.439035,-120,-191,3341
1.439127,-72,-130,3339
1.439215,-36,-66,3320
1.439294,43,-8,3305
1.439371,92,25,3268
1.439455,154,25,3272
1.439537,213,39,3286
1.439620,260,52,3316
1.439720,293,90,3365
1.439810,323,109,3419
1.439897,317,127,3465
1.439987,328,119,3458
1.440073,299,107,3412
1.440155,298,29,3279
1.483426,248,14,3252
1.483528,126,35,3269
1.483610,70,31,3275
1.483686,61,0,3217
1.483796,32,-3,3198
1.483881,-21,-7,3255
1.483971,-60,-18,3276
1.484063,-110,-38,3273
1.484156,-119,-62,3280
1.484248,-145,-54,3317
1.484340,-174,-48,3320
1.484432,-203,-34,3344
1.484524,-225,-20,3372
1.484611,-235,-5,3436
1.484706,-241,11,3485
1.484796,-242,40,3557
1.484882,-228,40,3599
1.502801,-252,47,3663
1.502916,-240,46,3713
1.503018,-262,15,3779
1.503118,-268,-6,3808
1.503223,-289,-44,3879
1.503328,-287,-67,3916
1.503431,-279,-91,3984
1.503543,-268,-104,4009
1.536091,-251,-112,4027
1.536200,-256,-90,4004
1.536299,-256,-61,4018
1.536388,-275,-2,4045
1.536476,-314,14,3999
1.536559,-317,4,3953
1.536645,-326,15,3944
1.536742,-314,-6,3928
1.536835,-308,-35,3881
1.536927,-320,-50,3850
1.537018,-307,-48,3815
1.537110,-308,-50,3798
1.552186,-344,-45,3729
1.552299,-348,-41,3664
1.552396,-366,-43,3575
1.552490,-356,-62,3516
1.552582,-347,-82,3418
1.552674,-333,-87,3340
1.583333,-284,-104,3171
1.583441,-256,-100,3022
1.583534,-222,-104,2944
1.583625,-198,-106,2802
1.583723,-194,-111,2695
1.583815,-212,-108,2530
1.583906,-217,-115,2435
1.583999,-220,-129,2293
1.584090,-212,-139,2215
1.584182,-201,-171,2108
1.584273,-191,-191,2056
1.584364,-139,-211,1961
1.584454,-117,-224,1897
1.622254,-90,-245,1809
1.622364,-65,-237,1746
1.622460,-44,-254,1675
1.622555,-25,-261,1650
1.622642,32,-292,1532
1.622737,45,-309,1439
1.622825,99,-315,1335
1.622919,123,-317,1261
1.623011,171,-291,1122
1.623103,208,-293,1049
1.623190,254,-305,921
1.623279,275,-318,838
1.623368,328,-311,698
1.623456,363,-306,614
1.623543,399,-305,487
1.623630,418,-316,403
1.662549,451,-307,285
1.662648,492,-323,237
1.662743,528,-319,120
1.662821,535,-321,49
1.662904,593,-349,-35
1.662992,617,-361,-154
1.663078,648,-391,-217
1.663165,671,-375,-276
1.663251,708,-406,-421
1.663337,718,-406,-482
1.663423,746,-426,-559
1.663508,770,-432,-625
1.663593,802,-442,-727
1.695815,851,-457,-845
1.695910,863,-480,-895
1.695994,894,-478,-925
1.696077,918,-485,-937
1.696160,923,-488,-965
1.696243,919,-465,-963
1.696325,939,-479,-988
1.696407,943,-466,-981
1.696488,953,-481,-974
1.696571,945,-460,-986
1.696653,961,-459,-963
1.712436,965,-477,-898
1.712544,950,-484,-866
1.712640,954,-491,-805
1.712743,943,-490,-748
1.712838,960,-502,-686
1.712931,971,-522,-631
1.734423,971,-516,-562
1.734535,975,-518,-490
1.734632,956,-527,-405
1.734736,927,-516,-315
1.734830,905,-505,-178
1.734925,894,-513,-56
1.735021,881,-502,107
1.735114,892,-500,234
1.735209,899,-480,401
1.735303,929,-466,527
1.735397,980,-433,699
1.735497,1007,-397,799
1.735599,1058,-338,923
1.772706,1108,-298,1033
1.772831,1179,-219,1141
1.772938,1222,-154,1210
1.773038,1290,-33,1322
1.773132,1334,53,1392
1.773232,1377,172,1484
1.773332,1398,232,1560
1.773429,1426,317,1688
1.773527,1452,361,1794
1.773624,1486,416,1975
1.773727,1487,457,2089
1.773825,1483,499,2288
1.773923,1460,484,2410
1.817264,1385,475,2629
1.817375,1325,435,2767
1.817470,1185,375,2998
1.817563,1076,367,3205
1.817650,984,283,3416
1.817744,884,255,3650
1.817832,717,209,3939
1.817922,606,170,4163
1.818011,498,72,4496
1.818094,454,2,4690
1.818188,403,-57,4961
1.857966,396,-31,5126
1.858074,371,-9,5420
1.858166,347,-6,5566
1.858254,372,-6,5794
1.858338,371,4,5896
1.858422,388,4,6031
1.858587,384,23,6123
1.858676,449,49,6221
1.858859,494,-108,6106
1.858968,234,173,6064
1.859062,229,193,6169
1.859150,223,133,6188
1.859234,195,81,6155
1.859316,236,33,6183
1.859395,249,7,6154
1.859484,219,-12,6098
1.859572,203,-34,6076
1.859660,130,-29,5991
1.859760,100,-31,5953
1.859848,94,-101,5820
1.859942,127,-141,5733
1.898302,137,-180,5580
1.898408,140,-203,5495
1.898497,161,-219,5346
1.898584,192,-226,5234
1.898671,208,-181,5084
1.898762,236,-182,4945
1.898846,252,-169,4757
1.898933,274,-188,4620
1.899018,303,-218,4401
1.899105,302,-214,4291
1.899191,293,-225,4064
1.899276,294,-203,3949
1.899363,299,-195,3792
1.899451,271,-186,3714
1.899537,247,-193,3587
1.899624,226,-205,3521
1.899714,205,-227,3422
1.899801,173,-236,3378
1.899887,141,-263,3301
1.899972,125,-277,3234
1.939422,92,-330,3121
1.939550,47,-346,3036
1.939659,23,-340,2972
1.939776,16,-372,2875
1.939884,-3,-389,2802
1.939992,-2,-448,2687
1.940096,3,-483,2583
1.940209,-14,-498,2457
1.940322,-23,-492,2378
1.940430,14,-508,2217
1.940537,21,-505,2113
1.975167,24,-509,1959
1.975270,10,-522,1853
1.975360,69,-526,1738
1.975449,87,-533,1639
1.975541,112,-547,1495
1.975633,115,-555,1401
1.975763,158,-555,1266
1.975857,181,-557,1172
1.975949,221,-560,1020
1.976037,235,-559,935
1.989078,299,-553,710
1.989198,322,-526,568
1.989301,400,-567,508
1.989401,405,-525,313
2.027628,462,-541,241
2.027731,520,-567,92
2.027814,541,-585,20
2.027902,603,-613,-116
2.027989,652,-616,-192
2.028075,689,-616,-316
2.028161,704,-625,-385
2.028246,723,-626,-478
2.028331,805,-653,-634
2.028417,840,-677,-695
2.028501,876,-690,-734
2.028587,920,-687,-786
2.028673,942,-685,-837
2.028776,979,-674,-872
2.028862,986,-688,-911
2.028953,1028,-680,-969
2.029050,1018,-669,-1002
2.029146,1024,-661,-1036
2.029241,1024,-666,-1044
2.029336,1029,-669,-1083
2.029430,1035,-691,-1114
2.029524,1048,-701,-1102
2.029619,1034,-715,-1105
2.029720,1022,-720,-1087
2.045267,1016,-712,-1050
2.045389,1086,-765,-1037
2.045496,1060,-773,-1040
2.045641,1016,-763,-1033
2.045758,979,-772,-1028
2.080012,951,-781,-1010
2.080117,942,-779,-991
2.080208,909,-755,-947
2.080297,904,-741,-904
2.080385,929,-731,-840
2.080473,937,-714,-774
2.080560,963,-702,-698
2.080647,979,-678,-661
2.080746,1000,-646,-581
2.119687,1001,-600,-530
2.119810,1035,-530,-430
2.119904,1046,-486,-371
2.119995,1080,-432,-266
2.120087,1098,-402,-190
2.120174,1128,-344,-54
2.150203,1204,-228,212
2.150317,1213,-177,328
2.150418,1258,-104,487
2.150512,1277,-73,641
2.150604,1305,-6,811
2.150692,1325,45,937
2.150796,1330,98,1110
2.150895,1322,114,1238
2.150994,1303,131,1400
2.151098,1285,173,1529
2.168403,1230,189,1740
2.168529,1189,186,1856
2.168637,1139,187,2108
2.168754,1099,175,2274
2.168859,1057,132,2502
2.168964,1029,102,2659
2.169059,947,48,2884
2.169165,624,-202,4508
2.169274,612,-183,4550
2.169378,599,-163,4584
2.169484,591,-143,4662
2.169589,582,-120,4704
2.191536,594,-89,4789
2.191642,578,-76,4860
2.191743,579,-45,4956
2.191831,567,-49,5015
2.191918,523,-60,5128
2.192008,513,-47,5194
2.192102,419,-80,5288
2.192194,365,-97,5370
2.192292,326,-137,5478
2.192390,239,-167,5512
2.192488,100,-242,5598
2.233818,32,-255,5672
2.233931,-69,-334,5796
2.234032,-146,-394,5884
2.234130,-257,-476,5962
2.234230,-334,-534,5999
2.234326,-432,-635,6059
2.234422,-472,-685,6062
2.234518,-535,-759,6062
2.234616,-561,-800,6046
2.234720,-618,-866,6002
2.234817,-638,-895,5992
2.234917,-651,-923,5898
2.235015,-633,-940,5860
2.235111,-591,-971,5734
2.235207,-550,-950,5642
2.235304,-516,-928,5459
2.235401,-469,-913,5348
2.274519,-423,-879,5113
2.274652,-394,-863,4972
2.274856,-373,-813,4786
2.274987,-312,-789,4646
2.275101,-274,-766,4457
2.275215,-244,-744,4350
2.275329,-210,-701,4179
2.275443,-199,-693,4092
2.275554,-174,-680,3942
2.275668,-170,-690,3836
2.275792,-155,-714,3693
2.275906,-125,-724,3581
2.276019,-141,-730,3420
2.276132,-144,-726,3352
2.276244,-165,-704,3209
2.276357,-177,-715,3138
2.276469,-176,-711,3008
2.310619,-181,-709,2942
2.310784,-169,-733,2805
2.310903,-150,-752,2723
2.311016,-113,-746,2610
2.311125,-90,-747,2501
2.311230,-79,-723,2387
2.311337,-76,-711,2302
2.311444,-27,-722,2167
2.311545,19,-702,2063
2.311647,63,-693,1933
2.311760,168,-729,1838
2.311867,137,-596,1628
2.311975,195,-617,1516
2.312089,240,-575,1341
2.326027,290,-564,1207
2.326146,349,-567,1013
2.326243,381,-567,912
2.326336,451,-551,748
2.326430,482,-536,643
2.337019,591,-540,359
2.337163,644,-543,211
2.337292,682,-528,133
2.337413,730,-541,-8
2.376334,777,-548,-75
2.376450,812,-570,-201
2.376545,841,-575,-273
2.376640,884,-558,-388
2.376772,906,-548,-444
2.376863,958,-565,-522
2.376957,1011,-582,-604
2.377051,1061,-602,-675
2.377142,1087,-610,-711
2.377234,1133,-628,-791
2.377326,1159,-618,-829
2.377418,1210,-634,-903
2.377509,1236,-613,-953
2.377602,1283,-638,-981
2.377697,1322,-627,-1045
2.377810,1369,-617,-1085
2.417887,1395,-612,-1140
2.418016,1428,-616,-1135
2.418126,1452,-603,-1179
2.418236,1483,-609,-1187
2.418345,1512,-587,-1161
2.418515,1523,-592,-1182
2.418632,1509,-582,-1189
2.418766,1584,-574,-1133
2.418875,1607,-568,-1171
2.418983,1568,-513,-1146
2.419091,1555,-522,-1111
2.419201,1527,-518,-1060
2.419306,1515,-507,-997
2.419410,1487,-500,-907
2.419515,1488,-495,-794
2.419618,1464,-510,-673
2.419744,1472,-502,-582
2.462240,1465,-494,-460
2.462371,1442,-484,-362
2.462486,1417,-441,-228
2.462599,1403,-439,-124
2.462711,1378,-377,15
2.462831,1372,-346,120
2.462939,1367,-310,293
2.463046,1370,-295,416
2.463151,1373,-259,593
2.463256,1375,-249,698
2.463362,1378,-223,883
2.463467,1368,-208,986
2.477190,1336,-165,1128
2.477325,1322,-144,1242
2.477440,1287,-124,1365
2.477551,1260,-118,1460
2.477661,1243,-112,1602
2.477801,1241,-92,1700
2.478001,1206,-88,1852
2.478111,1208,-70,1972
2.478215,1190,-69,2130
2.478318,1183,-75,2244
2.487809,1149,-69,2442
2.487943,1128,-74,2545
2.529730,1090,-76,2720
2.529855,1049,-107,2863
2.529947,979,-116,2999
2.530035,924,-138,3112
2.530121,821,-169,3270
2.530208,741,-196,3398
2.530294,653,-257,3549
2.530381,555,-290,3689
2.530466,430,-347,3866
2.530552,369,-394,3987
2.530640,319,-480,4163
2.530735,289,-531,4250
2.530822,255,-572,4369
2.530907,227,-593,4413
2.530993,207,-604,4467
2.531080,173,-606,4508
2.531166,137,-604,4528
2.531256,124,-587,4542
2.569118,126,-579,4542
2.569221,110,-596,4533
2.569310,127,-626,4540
2.569399,111,-617,4566
2.569485,115,-627,4580
2.569571,105,-619,4600
2.569654,82,-639,4640
2.569748,41,-656,4664
2.569835,-47,-676,4706
2.569928,-137,-699,4760
2.570021,-227,-763,4858
2.570112,-288,-807,4914
2.570205,-364,-894,5036
2.570295,-418,-950,5115
2.570392,-486,-1010,5206
2.570488,-505,-1030,5267
2.610181,-564,-1081,5316
2.610322,-601,-1115,5335
2.610443,-645,-1183,5325
2.610560,-664,-1206,5325
2.610677,-678,-1229,5254
2.610824,-677,-1264,5185
2.610932,-652,-1282,5081
2.611042,-634,-1278,4976
2.611150,-618,-1275,4833
2.611258,-588,-1274,4715
2.611366,-558,-1271,4509
2.611474,-504,-1255,4341
2.611582,-441,-1253,4145
2.611690,-407,-1234,4006
2.643364,-277,-1218,3597
2.643483,-202,-1208,3358
2.643587,-181,-1204,3209
2.643689,-124,-1163,2951
2.643803,-108,-1138,2796
2.643909,-63,-1100,2614
2.644015,-45,-1093,2482
2.644114,-6,-1095,2320
2.644213,13,-1079,2260
2.644312,39,-1075,2127
2.644411,71,-1081,2055
2.644514,108,-1071,1969
2.644618,144,-1064,1892
2.644739,194,-1062,1808
2.644849,225,-1041,1753
2.663225,251,-1016,1662
2.663335,290,-989,1559
2.663432,375,-960,1455
2.663525,406,-927,1383
2.663619,470,-921,1254
2.663717,514,-899,1183
2.663810,600,-862,1063
2.663902,656,-842,1007
2.663989,719,-843,891
2.686214,776,-822,813
2.686327,827,-805,684
2.686424,860,-795,614
2.686516,911,-799,496
2.686608,967,-827,445
2.686734,970,-784,292
2.686834,990,-797,230
2.686926,1026,-815,118
2.726197,1031,-819,46
2.726308,1062,-846,-27
2.726403,1068,-823,-91
2.726501,1077,-812,-175
2.726600,1092,-813,-216
2.726698,1121,-799,-256
2.726878,1155,-791,-276
2.727015,1213,-804,-336
2.727109,1233,-798,-349
2.727200,1272,-797,-388
2.727291,1278,-795,-390
2.727381,1290,-783,-388
2.727471,1292,-767,-385
2.727560,1282,-733,-350
2.727653,1274,-713,-352
2.768326,1308,-723,-290
2.768450,1321,-718,-269
2.768558,1310,-716,-207
2.768664,1322,-722,-200
2.768807,1341,-716,-152
2.768919,1343,-731,-120
2.769025,1305,-715,-89
2.769131,1323,-706,-66
2.769233,1298,-696,27
2.769334,1313,-687,56
2.769441,1280,-659,145
2.769546,1266,-637,250
2.769651,1288,-621,331
2.769842,1301,-610,386
2.769961,1354,-570,454
2.770062,1380,-532,487
2.770160,1428,-458,535
2.770259,1475,-424,589
2.770358,1513,-337,628
2.782397,1570,-291,637
2.782503,1646,-209,670
2.782593,1678,-166,682
2.782681,1708,-109,759
2.782793,1720,-89,799
2.782876,1700,-56,899
2.819600,1689,-40,979
2.819697,1636,-42,1127
2.819807,1593,-57,1203
2.819889,1495,-78,1368
2.819975,1417,-107,1484
2.820061,1275,-158,1687
2.820148,1169,-194,1826
2.820234,1005,-246,2065
2.820316,893,-314,2210
2.820397,729,-395,2486
2.820477,687,-462,2682
2.820557,535,-523,2909
2.820639,400,-536,3088
2.820725,295,-575,3376
2.820807,239,-611,3570
2.836031,178,-631,3804
2.836155,110,-622,3938
2.836252,29,-620,4122
2.836352,-14,-634,4239
2.836450,-89,-680,4369
2.836555,-104,-705,4467
2.868822,-140,-712,4570
2.868926,-144,-712,4649
2.869014,-152,-730,4703
2.869102,-173,-736,4755
2.869189,-222,-739,4782
2.869275,-248,-748,4786
2.869361,-298,-765,4799
2.869446,-324,-779,4789
2.869532,-364,-802,4829
2.869620,-391,-820,4811
2.869709,-443,-844,4830
2.869796,-474,-881,4816
2.906480,-546,-919,4849
2.906606,-607,-962,4847
2.906725,-687,-1007,4898
2.906837,-783,-1056,4935
2.906946,-829,-1111,4976
2.907055,-892,-1151,5024
2.907164,-969,-1202,5120
2.907278,-1016,-1261,5150
2.907391,-1050,-1317,5217
2.907507,-1059,-1338,5236
2.907622,-1076,-1382,5263
2.907740,-1065,-1387,5248
2.907855,-1053,-1398,5203
2.907969,-1011,-1393,5136
2.908078,-938,-1383,5025
2.908186,-899,-1359,4938
2.908295,-781,-1324,4754
2.950407,-758,-1279,4644
2.950527,-680,-1193,4450
2.950631,-603,-1141,4378
2.950758,-511,-1076,4246
2.950862,-434,-1051,4104
2.950964,-352,-1033,3909
2.951060,-275,-1027,3787
2.951152,-211,-988,3622
2.951244,-169,-970,3516
2.951336,-125,-927,3348
2.951423,-97,-937,3257
2.951511,-53,-924,3107
2.951599,-32,-922,3024
2.951680,7,-915,2898
2.951772,18,-932,2821
2.951861,30,-928,2712
2.964436,29,-931,2614
2.964536,19,-947,2520
2.964618,5,-971,2440
2.964697,8,-988,2363
2.964797,6,-1003,2307
2.964890,-29,-1032,2204
2.967265,-59,-1040,2137
3.001350,-46,-1063,2073
3.001453,-42,-1084,2057
3.001541,-38,-1068,2013
3.001627,-22,-1050,1991
3.001728,10,-1034,1933
3.001815,60,-1018,1883
3.001898,123,-995,1833
3.001979,164,-974,1773
3.002061,215,-926,1710
3.002143,228,-890,1641
3.002224,301,-874,1565
3.002305,349,-862,1482
3.002386,396,-820,1379
3.017443,439,-811,1322
3.017566,515,-766,1203
3.017671,539,-747,1118
3.017809,609,-739,1041
3.017912,644,-705,947
3.018013,718,-707,856
3.018114,773,-686,790
3.052495,874,-653,606
3.052588,940,-645,498
3.052668,986,-627,419
3.052772,1033,-613,317
3.052855,1094,-597,233
3.052937,1114,-605,152
3.053014,1160,-606,95
3.053091,1202,-602,25
3.053171,1247,-604,-71
3.053257,1279,-594,-134
3.053344,1290,-585,-169
3.053430,1330,-578,-227
3.090808,1357,-579,-271
3.090933,1390,-565,-345
3.091039,1445,-564,-389
3.091143,1450,-562,-454
3.134582,1434,-550,-520
3.134731,1513,-572,-519
3.134847,1621,-619,-543
3.134960,1649,-593,-623
3.135072,1621,-547,-678
3.135186,1622,-529,-772
3.135299,1629,-519,-792
3.135411,1650,-531,-814
3.135524,1666,-527,-847
3.135636,1692,-529,-830
3.135795,1712,-528,-862
3.135909,1757,-526,-877
3.136019,1750,-513,-901
3.136122,1786,-515,-919
3.136227,1763,-498,-909
3.149499,1761,-455,-926
3.149613,1763,-452,-917
3.149736,1734,-434,-928
3.149835,1718,-427,-932
3.149932,1736,-421,-871
3.150030,1761,-405,-849
3.150127,1713,-381,-860
3.150224,1686,-362,-844
3.150321,1632,-337,-793
3.150419,1614,-320,-774
3.150516,1294,-237,-176
3.150612,1263,-219,-103
3.150695,1204,-181,9
3.185620,1170,-153,92
3.185763,1124,-141,241
3.185856,1100,-122,337
3.185945,1051,-100,480
3.186031,1015,-101,597
3.186109,952,-87,758
3.186188,895,-72,867
3.186272,815,-54,1048
3.186356,751,-61,1168
3.186440,652,-56,1341
3.186522,584,-72,1485
3.186606,493,-76,1666
3.186688,412,-86,1784
3.186780,336,-137,2031
3.186868,283,-126,2155
3.201954,211,-164,2379
3.202072,185,-215,2527
3.202175,153,-256,2693
3.202274,139,-279,2789
3.202373,118,-308,2927
3.202473,100,-292,2973
3.236186,74,-294,3064
3.236287,53,-284,3101
3.236373,64,-284,3171
3.236456,43,-266,3209
3.236538,16,-261,3301
3.236621,37,-241,3353
3.236710,17,-244,3440
3.236797,-10,-245,3503
3.236886,-54,-261,3594
3.236972,-68,-278,3692
3.275072,-153,-301,3832
3.275207,-213,-333,3924
3.275320,-322,-374,4078
3.275433,-365,-421,4153
3.275543,-455,-498,4331
3.275653,-506,-531,4429
3.275772,-567,-565,4580
3.322007,-603,-599,4666
3.322141,-657,-615,4809
3.322255,-673,-635,4870
3.322366,-670,-680,4980
3.322477,-687,-688,5023
3.322587,-669,-716,5090
3.322697,-674,-708,5135
3.322815,-692,-709,5172
3.322927,-716,-684,5198
3.323089,-751,-688,5243
3.323200,-773,-674,5256
3.323310,-784,-689,5323
3.323420,-825,-710,5336
3.323533,-856,-735,5411
3.323644,-903,-781,5447
3.323775,-962,-819,5491
3.323881,-988,-859,5543
3.323998,-1052,-924,5606
3.324112,-1154,-1101,5749
3.324257,-1206,-1079,5711
3.324371,-1217,-1079,5725
3.324485,-1212,-1130,5720
3.324598,-1170,-1171,5694
3.324719,-1093,-1194,5589
3.324833,-1061,-1187,5513
3.324942,-996,-1174,5384
3.325050,-962,-1136,5291
3.337574,-903,-1104,5106
3.337713,-863,-1067,4993
3.337824,-773,-1035,4786
3.337932,-701,-1029,4664
3.338063,-626,-1009,4493
3.348663,-484,-957,4192
3.348832,-447,-957,4070
3.348962,-355,-941,3844
3.349091,-313,-940,3719
3.349219,-256,-917,3523
3.386599,-235,-915,3405
3.386717,-191,-893,3241
3.386813,-150,-885,3141
3.386905,-129,-868,3012
3.386996,-113,-872,2917
3.387079,-74,-885,2820
3.387162,-68,-900,2750
3.387244,-33,-878,2666
3.387325,-23,-866,2598
3.387404,17,-852,2499
3.387478,0,-801,2391
3.387556,82,-801,2301
3.427601,118,-794,2227
3.427722,161,-768,2098
3.427818,192,-743,2003
3.427912,229,-694,1854
3.428055,263,-671,1757
3.428148,297,-649,1580
3.428239,329,-639,1464
3.428330,382,-646,1289
3.468847,404,-638,1153
3.468942,436,-655,990
3.469024,459,-659,844
3.469103,455,-642,674
3.469180,479,-650,550
3.469259,478,-667,429
3.469337,501,-685,332
3.469414,468,-700,205
3.469490,422,-695,108
3.469567,583,-772,180
3.469639,642,-788,38
3.469739,658,-784,-169
3.469823,637,-780,-248
3.469904,607,-795,-326
3.469985,614,-802,-383
3.470064,635,-805,-463
3.470145,668,-807,-515
3.470226,787,-884,-838
3.470307,802,-871,-853
3.470387,789,-879,-870
3.500763,823,-913,-915
3.500870,838,-912,-916
3.500962,880,-888,-907
3.501048,899,-891,-886
3.501133,891,-859,-839
3.501219,884,-826,-789
3.501304,859,-803,-719
3.501392,838,-805,-682
3.501478,801,-827,-581
3.501564,766,-819,-534
3.501650,697,-835,-445
3.501752,679,-815,-309
3.501837,671,-835,-139
3.501916,660,-809,-5
3.502003,677,-783,186
3.519525,688,-755,333
3.519648,752,-678,563
3.519760,781,-632,749
3.519862,862,-559,984
3.519968,929,-497,1161
3.520082,1020,-391,1400
3.543779,1122,-324,1576
3.543891,1268,-182,1807
3.543981,1364,-80,1963
3.544064,1536,52,2236
3.544152,1631,136,2403
3.544239,1793,283,2672
3.544325,1886,389,2823
3.544412,2002,531,3052
3.544498,2084,599,3200
3.544585,2174,681,3427
3.581691,2202,705,3591
3.581803,2221,710,3750
3.581893,2206,706,3873
3.581979,2136,677,4036
3.582065,2091,650,4157
3.582151,2003,594,4300
3.582236,1945,531,4395
3.582323,1806,434,4528
3.582411,1709,359,4587
3.582496,1556,260,4661
3.582581,1458,202,4711
3.582667,1328,107,4744
3.582784,1248,39,4785
3.582871,1127,-41,4819
3.583029,1056,-74,4824
3.583119,970,-131,4830
3.620315,920,-161,4790
3.620419,870,-207,4781
3.620593,828,-215,4755
3.620728,770,-248,4685
3.620817,721,-245,4626
3.620903,651,-276,4544
3.620991,607,-300,4451
3.621079,558,-372,4272
3.621167,510,-412,4110
3.621253,453,-500,3836
3.621341,367,-551,3640
3.621428,232,-611,3373
3.621513,155,-662,3193
3.621596,10,-759,2902
3.651374,-82,-821,2726
3.651490,-175,-897,2425
3.651592,-259,-989,2218
3.651699,-436,-1123,1855
3.651828,-550,-1225,1642
3.651938,-703,-1380,1308
3.652049,-823,-1483,1083
3.652153,-976,-1622,797
3.652264,-1056,-1733,630
3.668310,-1188,-1859,399
3.668432,-1343,-1941,249
3.668539,-1463,-2052,217
3.668643,-1360,-2076,119
3.668785,-1408,-2130,-94
3.668888,-1479,-2139,-98
3.690614,-1570,-2161,-79
3.690788,-1632,-2200,-131
3.690899,-1650,-2180,-134
3.691003,-1667,-2187,-75
3.691104,-1659,-2176,-27
3.691200,-1651,-2178,46
3.691302,-1618,-2165,154
3.691404,-1567,-2148,228
3.691505,-1466,-2094,360
3.691608,-1390,-2049,411
3.691725,-1230,-1929,508
3.691831,-1139,-1846,584
3.691924,-967,-1739,680
3.692017,-862,-1651,772
3.692108,-695,-1520,914
3.692205,-579,-1406,1026
3.731643,-365,-1247,1186
3.731785,-194,-1131,1313
3.731878,83,-955,1504
3.731973,267,-844,1652
3.732067,536,-665,1877
3.732160,682,-539,2032
3.732252,896,-391,2262
3.732349,1052,-273,2411
3.732446,1262,-138,2648
3.732539,1382,-28,2806
3.732632,1547,100,3077
3.732747,1647,169,3270
3.732840,1775,294,3530
3.732932,1857,314,3677
3.733024,1915,373,3906
3.770005,1947,391,4052
3.770103,1963,412,4229
3.770188,1974,454,4311
3.770269,2007,433,4493
3.770351,2006,441,4580
3.770433,1995,467,4685
3.770517,2031,452,4698
3.770599,2026,462,4716
3.770683,2036,470,4696
3.770776,2040,464,4647
3.770859,2010,486,4625
3.770941,1994,503,4562
3.771023,1975,506,4541
3.771106,1938,499,4439
3.771188,1916,488,4383
3.802514,1861,453,4269
3.802631,1817,421,4199
3.802745,1745,355,4024
3.802846,1655,320,3900
3.802946,1533,218,3641
3.803044,1433,141,3451
3.803139,1249,25,3161
3.803239,1091,-91,2951
3.803339,893,-231,2680
3.803438,720,-329,2502
3.803538,466,-474,2237
3.803636,287,-589,2026
3.822071,23,-775,1721
3.822205,-124,-916,1530
3.822327,-365,-1126,1225
3.822445,-544,-1243,1033
3.822558,-751,-1430,733
3.822670,-851,-1545,560
3.822812,-1011,-1682,301
3.822931,-1093,-1769,137
3.844499,-1194,-1855,-95
3.844640,-1234,-1907,-231
3.844777,-1384,-1945,-484
3.844900,-1321,-1912,-284
3.845022,-1065,-1980,-591
3.845144,-1095,-1981,-736
3.845265,-1164,-1906,-757
3.884180,-1173,-1901,-744
3.884310,-1129,-1833,-731
3.884420,-1090,-1809,-691
3.884527,-1022,-1766,-596
3.884634,-1005,-1760,-529
3.884757,-978,-1737,-383
3.884863,-954,-1714,-309
3.884972,-912,-1700,-162
3.885077,-900,-1660,-76
3.885178,-864,-1599,59
3.885284,-811,-1553,193
3.885390,-730,-1474,387
3.885494,-679,-1399,501
3.885600,-562,-1310,652
3.885713,-458,-1233,766
3.885830,-323,-1131,938
3.885939,-217,-1060,1039
3.886038,-51,-937,1239
3.923053,68,-859,1397
3.923172,243,-738,1642
3.923272,335,-660,1821
3.923373,500,-527,2112
3.923471,574,-440,2297
3.923568,679,-332,2588
3.923665,737,-284,2812
3.923791,827,-188,3120
3.923890,888,-147,3321
3.923983,964,-66,3622
3.924084,1016,-55,3803
3.924177,1077,12,4016
3.924270,1114,32,4144
3.924363,1151,62,4295
3.924456,1176,85,4380
3.924549,1284,96,4405
3.953440,1279,134,4472
3.953549,1212,165,4488
3.953643,1221,196,4502
3.953775,1274,168,4496
3.953870,1251,177,4459
3.953962,1244,167,4428
3.954055,1211,151,4428
3.954153,1172,103,4385
3.954246,1147,72,4338
3.954338,1084,16,4276
3.954430,1048,-8,4225
3.954524,971,-62,4122
3.954618,907,-65,4031
3.970932,810,-114,3930
3.971046,751,-149,3845
3.971136,670,-180,3743
3.971224,602,-225,3659
3.971313,532,-275,3538
3.971401,449,-304,3471
3.993214,332,-373,3370
3.993319,247,-416,3273
3.993410,121,-508,3112
3.993495,58,-577,2986
3.993584,-80,-682,2735
3.993677,-171,-766,2540
3.993816,-309,-895,2189
3.993908,-380,-1008,1913
3.994000,-468,-1156,1489
3.994092,-566,-1251,1207
4.030675,-627,-1371,777
4.030824,-796,-1393,439
4.030918,-916,-1480,28
4.031016,-961,-1509,-176
4.031118,-1006,-1584,-458
4.031220,-1021,-1633,-655
4.031322,-1069,-1701,-846
4.031425,-1089,-1750,-935
4.031532,-1093,-1796,-1017
4.031641,-1098,-1831,-1054
4.031766,-1089,-1854,-1080
4.031872,-1069,-1839,-1053
4.031979,-1038,-1845,-1024
4.073070,-999,-1837,-972
4.073199,-971,-1815,-897
4.073311,-939,-1794,-854
4.073419,-891,-1762,-811
4.073528,-878,-1738,-773
4.073635,-849,-1689,-699
4.073767,-822,-1664,-632
4.073875,-769,-1618,-499
4.073982,-725,-1571,-425
4.074091,-657,-1490,-249
4.074198,-588,-1418,-114
4.074296,-470,-1323,76
4.074401,-417,-1269,212
4.074504,-365,-1167,451
4.118873,-321,-1037,852
4.119007,-348,-1003,1013
4.119121,-408,-994,1238
4.119240,-470,-1012,1394
4.119358,-587,-1033,1661
4.119474,-681,-1043,1847
4.119589,-866,-1057,2112
4.119729,-988,-1072,2318
4.119852,-1151,-1091,2597
4.119975,-1257,-1124,2799
4.120092,-1366,-1165,3094
4.120205,-1397,-1201,3286
4.120317,-1414,-1247,3525
4.120429,-1414,-1270,3665
4.120543,-1385,-1225,3848
4.120656,-1364,-1198,3945
4.120778,-1314,-1107,4133
4.120894,-1249,-1027,4247
4.121001,-1148,-966,4386
4.121110,-1068,-917,4428
4.121213,-929,-877,4519
4.121317,-870,-857,4544
4.121420,-751,-811,4571
4.134029,-702,-784,4557
4.134158,-621,-740,4536
4.134258,-572,-727,4489
4.134357,-520,-714,4418
4.145064,-444,-718,4212
4.145257,-422,-719,4032
4.145431,-426,-722,3885
4.145603,-440,-728,3749
4.185511,-453,-778,3470
4.185646,-464,-829,3112
4.185771,-504,-878,2837
4.185882,-572,-938,2391
4.185993,-625,-987,2099
4.186111,-738,-1074,1646
4.186229,-791,-1137,1374
4.186341,-873,-1222,935
4.186452,-929,-1273,655
4.186569,-1006,-1365,281
4.186682,-1062,-1441,57
4.186812,-1143,-1530,-192
4.186937,-1189,-1605,-352
4.187058,-1273,-1690,-532
4.187182,-1306,-1780,-619
4.187304,-1371,-1884,-740
4.187426,-1412,-1926,-796
4.226977,-1443,-1992,-839
4.227113,-1454,-2015,-873
4.227230,-1477,-2055,-905
4.227345,-1470,-2074,-921
4.227459,-1412,-2119,-990
4.227577,-1399,-2137,-1026
4.227695,-1331,-2129,-1072
4.227822,-1297,-2103,-1107
4.227942,-1224,-2026,-1153
4.228061,-1163,-1960,-1184
4.228179,-1060,-1871,-1191
4.228293,-974,-1827,-1213
4.228407,-864,-1752,-1206
4.228521,-821,-1703,-1200
4.228635,-749,-1621,-1095
4.273807,-715,-1550,-989
4.273960,-644,-1499,-702
4.274092,-625,-1453,-448
4.274213,-552,-1356,-56
4.274338,-478,-1299,239
4.274458,-393,-1228,641
4.274577,-331,-1185,943
4.274708,-307,-1101,1310
4.274835,-265,-1061,1591
4.274954,-228,-983,2038
4.275073,-234,-945,2304
4.275195,-208,-884,2645
4.275314,-195,-881,2866
4.275433,-244,-877,3105
4.275552,-273,-878,3253
4.275675,-355,-924,3466
4.275825,-418,-952,3562
4.275942,-526,-1001,3714
4.289048,-567,-1024,3768
4.289186,-662,-1051,3842
4.289306,-737,-1100,3880
4.289422,-850,-1129,3882
4.289541,-885,-1150,3877
4.289660,-987,-1188,3862
4.300124,-1041,-1195,3837
4.300269,-1124,-1213,3796
4.300395,-1166,-1206,3770
4.300520,-1222,-1188,3718
4.300643,-1239,-1207,3683
4.300775,-1248,-1229,3677
4.345060,-1248,-1233,3659
4.345204,-1235,-1263,3636
4.345329,-1223,-1245,3633
4.345450,-1214,-1248,3592
4.345573,-1226,-1259,3558
4.345693,-1213,-1240,3515
4.345841,-1198,-1232,3464
4.345966,-1189,-1214,3410
4.346079,-1181,-1173,3357
4.346192,-1153,-1126,3272
4.346305,-1126,-1122,3258
4.346419,-1072,-1082,3167
4.346532,-1065,-1079,3078
4.346645,-1035,-1070,2900
4.387836,-1014,-1077,2757
4.387979,-957,-1104,2414
4.388100,-923,-1126,2125
4.388218,-888,-1163,1632
4.388335,-863,-1189,1262
4.388447,-833,-1243,695
4.388559,-789,-1244,338
4.388676,-772,-1231,-256
4.388833,-722,-1223,-679
4.388965,-670,-1183,-1214
4.389096,-619,-1186,-1503
4.389232,-514,-1214,-1892
4.389364,-455,-1202,-2127
4.422329,-350,-1220,-2413
4.422473,-225,-1289,-2568
4.422599,-147,-1361,-2717
4.422761,-123,-1401,-2767
4.422884,-136,-1443,-2801
4.423007,-131,-1488,-2797
4.423129,-152,-1560,-2786
4.423251,-177,-1580,-2745
4.423372,-219,-1645,-2660
4.423496,-214,-1674,-2614
4.423618,-231,-1739,-2508
4.423818,-209,-1743,-2455
4.423988,-189,-1753,-2362
4.424114,-167,-1752,-2311
4.424238,-164,-1721,-2191
4.441396,-176,-1665,-2105
4.441529,-172,-1621,-1937
4.441649,-176,-1569,-1803
4.441775,-166,-1540,-1630
4.441892,-185,-1533,-1471
4.442014,-232,-1512,-1217
4.442138,-263,-1494,-1040
4.442257,-333,-1491,-715
4.442376,-397,-1485,-477
4.442488,-499,-1472,-94
4.442600,-563,-1474,180
4.442733,-634,-1469,617
4.442845,-672,-1485,894
4.465449,-691,-1505,1286
4.465561,-734,-1501,1574
4.465660,-774,-1476,2004
4.465833,-814,-1457,2240
4.465945,-881,-1402,2565
4.466044,-942,-1382,2762
4.466142,-987,-1365,2994
4.466245,-1009,-1380,3114
4.466349,-1039,-1368,3273
4.466453,-1076,-1363,3401
4.466555,-1167,-1356,3521
4.466658,-1203,-1351,3595
4.502948,-1270,-1347,3719
4.503075,-1293,-1338,3752
4.503187,-1340,-1346,3799
4.503296,-1391,-1346,3841
4.503404,-1435,-1371,3861
4.503511,-1458,-1381,3917
4.503618,-1508,-1400,3908
4.503757,-1529,-1401,3923
4.503864,-1551,-1400,3936
4.503971,-1562,-1412,3963
4.504078,-1567,-1411,3950
4.504185,-1556,-1426,3942
4.504292,-1559,-1427,3952
4.504399,-1544,-1414,3940
4.504506,-1529,-1419,3944
4.542905,-1521,-1424,3945
4.543033,-1488,-1410,3928
4.543143,-1470,-1408,3860
4.543251,-1423,-1365,3816
4.543359,-1402,-1338,3768
4.543466,-1352,-1295,3677
4.543573,-1310,-1243,3635
4.573021,-1249,-1183,3513
4.573165,-1224,-1156,3435
4.573290,-1165,-1096,3326
4.573412,-1119,-1056,3264
4.573533,-1080,-1001,3117
4.573651,-1058,-991,3004
4.573773,-1042,-956,2758
4.573890,-1018,-971,2555
4.590469,-950,-1010,2226
4.590592,-900,-1050,1952
4.590698,-880,-1063,1435
4.590826,-891,-1078,1083
4.613021,-831,-1085,190
4.613137,-824,-1101,-351
4.613241,-741,-1128,-738
4.613348,-545,-1142,-1194
4.613450,-31,-1559,-2618
4.613550,-51,-1599,-2630
4.613652,-74,-1671,-2618
4.613778,-81,-1730,-2608
4.613885,-123,-1811,-2569
4.613991,-131,-1849,-2552
4.614097,-160,-1890,-2523
4.614204,-150,-1918,-2542
4.614309,-119,-1934,-2540
4.652922,-33,-1891,-2568
4.653045,-2,-1852,-2560
4.653151,21,-1767,-2550
4.653256,37,-1711,-2484
4.653372,45,-1641,-2413
4.653493,40,-1607,-2316
4.653595,52,-1566,-2130
4.653697,33,-1556,-1977
4.653816,1,-1518,-1708
4.653927,-44,-1495,-1518
4.654036,-77,-1486,-1208
4.654145,-117,-1468,-979
4.654253,-155,-1455,-650
4.654361,-168,-1420,-410
4.654464,-216,-1382,-76
4.654567,-269,-1364,138
4.654672,-319,-1331,437
4.694342,-366,-1304,645
4.694476,-437,-1279,960
4.694597,-510,-1258,1164
4.694724,-580,-1265,1460
4.694834,-624,-1247,1662
4.694944,-704,-1230,1963
4.695053,-758,-1221,2116
4.695161,-869,-1223,2359
4.731965,-1033,-1234,2750
4.732104,-1109,-1250,2877
4.732230,-1252,-1278,3086
4.732353,-1345,-1304,3216
4.732474,-1459,-1355,3381
4.732596,-1534,-1393,3494
4.732739,-1653,-1446,3642
4.732871,-1713,-1501,3754
4.732995,-1796,-1549,3894
4.747563,-1987,-1614,4064
4.747716,-2001,-1634,4168
4.747846,-2000,-1691,4240
4.747966,-2022,-1705,4279
4.748083,-1988,-1732,4297
4.748197,-1975,-1729,4341
4.748310,-1958,-1697,4325
4.762821,-1916,-1676,4309
4.762953,-1862,-1644,4268
4.763072,-1805,-1610,4204
4.763187,-1714,-1548,4104
4.763300,-1369,-1251,3521
4.763414,-1305,-1200,3447
4.763527,-1243,-1170,3297
4.763642,-1191,-1142,3198
4.763760,-1120,-1103,2994
4.763872,-1080,-1093,2839
4.763982,-1035,-1084,2542
4.764087,-991,-1075,2311
4.764188,-937,-1106,1905
4.797495,-916,-1114,1653
4.797604,-903,-1152,1215
4.797691,-892,-1170,930
4.797790,-881,-1221,499
4.797876,-848,-1260,231
4.797966,-798,-1318,-160
4.798058,-760,-1352,-445
4.798149,-714,-1393,-809
4.798243,-678,-1415,-1029
4.798340,-610,-1443,-1299
4.798442,-591,-1469,-1484
4.798536,-485,-1469,-1802
4.798631,-416,-1512,-1990
4.836381,-293,-1608,-2143
4.836507,-288,-1655,-2344
4.836616,-300,-1645,-2601
4.836750,-295,-1632,-2634
4.836858,-285,-1689,-2719
4.836966,-270,-1732,-2753
4.837065,-258,-1785,-2780
4.837164,-277,-1818,-2783
4.837263,-296,-1847,-2758
4.837363,-312,-1861,-2717
4.837464,-315,-1892,-2649
4.837564,-332,-1902,-2614
4.837663,-326,-1938,-2539
4.837767,-322,-1937,-2490
4.837869,-334,-1911,-2393
4.837968,-319,-1880,-2329
4.877311,-342,-1805,-2187
4.877438,-336,-1747,-2104
4.877547,-324,-1671,-1905
4.877654,-329,-1621,-1763
4.877793,-318,-1581,-1506
4.877901,-345,-1546,-1301
4.878002,-393,-1517,-957
4.878103,-454,-1490,-677
4.878205,-541,-1468,-169
4.878303,-589,-1476,141
4.878401,-665,-1448,643
4.878502,-699,-1442,1012
4.878604,-740,-1456,1516
4.878719,-784,-1436,1859
4.878828,-849,-1409,2310
4.908015,-902,-1376,2595
4.908138,-963,-1359,2973
4.908253,-1005,-1342,3226
4.925884,-1068,-1312,3507
4.926029,-1097,-1315,3681
4.926158,-1159,-1299,3925
4.926284,-1272,-1281,4061
4.926408,-1385,-1307,4244
4.926530,-1449,-1328,4319
4.926655,-1539,-1370,4455
4.949770,-1728,-1436,4587
4.949890,-1835,-1460,4622
4.949995,-1946,-1470,4715
4.950095,-2018,-1517,4769
4.950196,-2098,-1556,4800
4.950296,-2141,-1561,4807
4.950396,-2164,-1597,4830
4.950496,-2177,-1597,4821
4.950598,-2179,-1598,4816
4.987111,-2146,-1583,4766
4.987227,-2112,-1561,4716
4.987330,-2066,-1515,4659
4.987430,-2015,-1505,4615
4.987532,-1926,-1442,4491
4.987633,-1870,-1401,4414
4.987753,-1776,-1338,4284
4.987859,-1732,-1289,4154
4.987960,-1649,-1210,3952
4.988061,-1593,-1156,3823
4.988160,-1494,-1073,3618
4.988260,-1395,-1029,3496
4.988356,-1436,-923,3182
4.988451,-1414,-891,3074
4.988546,-1299,-886,2763
4.988641,-1221,-884,2600
4.988756,-1157,-860,2350
4.988852,-1163,-858,2150
4.988952,-1152,-850,1812
4.989052,-1129,-859,1608
4.989156,-1101,-875,1314
4.989258,-1087,-870,1141
4.989354,-1088,-869,850
4.989451,-1100,-898,654
4.989548,-1103,-984,322
5.028966,-1123,-1064,126
5.029096,-1101,-1166,-110
5.029204,-1084,-1252,-313
5.029311,-1057,-1382,-591
5.029417,-1013,-1433,-789
5.029522,-913,-1480,-1025
5.029628,-849,-1522,-1228
5.029742,-718,-1515,-1539
5.029848,-593,-1510,-1738
5.029954,-470,-1571,-2054
5.030061,-344,-1576,-2269
5.030164,-96,-1555,-2629
5.030261,47,-1494,-2840
5.030364,227,-1401,-3176
5.030470,320,-1367,-3329
5.030573,459,-1452,-3537
5.059555,434,-1314,-3801
5.059666,693,-1275,-3962
5.059770,774,-1290,-4024
5.059866,886,-1345,-4080
5.059964,951,-1365,-4090
5.060065,990,-1387,-4057
5.060170,1002,-1381,-3998
5.060277,1025,-1363,-3876
5.060382,1017,-1369,-3785
5.078559,1004,-1372,-3604
5.078679,995,-1378,-3510
5.078795,978,-1389,-3363
5.078899,968,-1376,-3260
5.079004,945,-1368,-3107
5.079107,916,-1344,-3023
5.079209,896,-1313,-2847
5.144274,839,-1210,-2520
5.144394,820,-1157,-2391
5.193818,795,-1125,-2156
5.193950,802,-1105,-1995
5.194065,754,-1068,-1700
5.194177,718,-1038,-1532
5.194288,656,-1001,-1233
5.194392,598,-959,-1037
5.194493,497,-922,-735
5.194591,417,-895,-499
5.194688,281,-893,-164
5.194783,169,-886,60
5.194872,15,-906,447
5.194964,-88,-916,685
5.195062,-256,-919,1054
5.195160,-374,-954,1276
5.195258,-549,-992,1627
5.195366,-2229,-1719,5162
5.195476,-2187,-1694,5168
5.195583,-2068,-1712,5118
5.195689,-1990,-1696,5135
5.195801,-1916,-1627,5131
5.251673,-1888,-1576,5093
5.251891,-1848,-1529,5005
5.252018,-1816,-1484,4966
5.252140,-1768,-1441,4886
5.252262,-1733,-1393,4821
5.252386,-1702,-1322,4710
5.252507,-1655,-1295,4605
5.252628,-1572,-1235,4443
5.252759,-1551,-1231,4315
5.252880,-1493,-1181,4069
5.253003,-1474,-1169,3888
5.253123,-1452,-1172,3541
5.253246,-1439,-1170,3292
5.295521,-1433,-1192,2876
5.295639,-1418,-1198,2575
5.295748,-1411,-1237,2142
5.295849,-1402,-1255,1833
5.295950,-1355,-1299,1344
5.296052,-1313,-1309,1012
5.296148,-1215,-1372,535
5.341445,340,-1639,-3932
5.341585,444,-1700,-3976
5.341712,497,-1720,-3976
5.341880,553,-1749,-3952
5.341998,585,-1769,-3913
5.342114,598,-1760,-3834
5.342263,613,-1775,-3749
5.342380,638,-1755,-3651
5.342509,645,-1756,-3557
5.342627,645,-1709,-3417
5.342779,646,-1669,-3327
5.342895,641,-1626,-3142
5.343011,635,-1587,-3019
5.343127,612,-1505,-2828
5.382892,611,-1454,-2680
5.383010,574,-1392,-2437
5.383151,544,-1348,-2297
5.383248,489,-1285,-2029
5.421018,443,-1244,-1825
5.421133,359,-1184,-1509
5.421233,287,-1143,-1291
5.421324,140,-1097,-856
5.421413,26,-1093,-568
5.421513,-1745,-1386,4571
5.421613,-1795,-1415,4682
5.421770,-1820,-1442,4807
5.421883,-1864,-1437,4912
5.421986,-1854,-1463,5032
5.422097,-1908,-1519,5100
5.422203,-2046,-1537,5270
5.422309,-2019,-1563,5304
5.422415,-2019,-1609,5288
5.422522,-1994,-1603,5347
5.422628,-1943,-1572,5353
5.422740,-1935,-1520,5258
5.422847,-1932,-1451,5153
5.464716,-1892,-1415,5081
5.464835,-1819,-1398,4947
5.464936,-1777,-1370,4836
5.465037,-1711,-1338,4671
5.465137,-1634,-1319,4556
5.465236,-1596,-1268,4380
5.465336,-1600,-1213,4260
5.465436,-1547,-1195,4115
5.465536,-1506,-1163,4016
5.465637,-1430,-1120,3889
5.465756,-1373,-1099,3767
5.465857,-1303,-1054,3604
5.465957,-1276,-1014,3501
5.507392,-1266,-936,3334
5.507532,-1173,-907,3194
5.507652,-1230,-813,3005
5.507775,-1218,-837,2837
5.507892,-1158,-880,2495
5.508006,-1112,-904,2274
5.508118,-980,-993,1865
5.508233,-919,-1004,1565
5.508348,-868,-1043,1099
5.508458,-849,-1073,785
5.508568,-786,-1101,354
5.508674,-727,-1125,41
5.508797,-652,-1164,-383
5.508914,-607,-1172,-637
5.509035,-475,-1243,-1060
5.509156,-411,-1289,-1311
5.509277,-318,-1336,-1654
5.509397,-243,-1353,-1877
5.509518,-135,-1331,-2170
5.509633,-70,-1319,-2347
5.509749,84,-1445,-2561
5.509866,161,-1508,-2643
5.509982,417,-1610,-2790
5.510098,290,-1402,-2955
5.552620,364,-1493,-3079
5.552779,376,-1487,-3063
5.552891,390,-1553,-3034
5.553002,401,-1590,-3039
5.553110,407,-1649,-2958
5.553218,417,-1658,-2930
5.553327,402,-1698,-2877
5.553435,372,-1714,-2856
5.553542,366,-1739,-2792
5.553652,380,-1713,-2771
5.602833,407,-1721,-2756
5.603000,432,-1708,-2730
5.603113,463,-1675,-2748
5.603222,476,-1630,-2714
5.603333,506,-1560,-2716
5.603442,533,-1486,-2682
5.603550,561,-1411,-2641
5.603660,582,-1331,-2596
5.616528,569,-1246,-2493
5.616657,553,-1196,-2407
5.616824,509,-1161,-2253
5.616928,456,-1120,-2142
5.617031,377,-1091,-1925
5.617133,311,-1069,-1747
5.665092,219,-1036,-1472
5.665232,159,-1014,-1269
5.665337,51,-991,-967
5.665439,-2,-995,-740
5.665549,-119,-971,-412
5.665719,-214,-936,-158
5.665824,-353,-888,208
5.665932,-444,-866,464
5.666036,-606,-845,871
5.666149,-727,-836,1125
5.714846,-843,-876,1541
5.714983,-905,-931,1829
5.715106,-1000,-986,2252
5.715230,-1050,-1016,2520
5.715354,-1109,-1073,2904
5.715477,-1143,-1094,3128
5.715601,-1474,-1175,5294
5.715741,-1501,-1177,5321
5.715863,-1514,-1196,5314
5.715987,-1531,-1224,5277
5.716120,-1538,-1241,5241
5.716253,-1567,-1294,5204
5.716385,-1564,-1275,5172
5.716515,-1578,-1274,5090
5.716648,-1589,-1272,5030
5.716779,-1594,-1285,4955
5.716902,-1334,-1112,2922
5.717103,-1283,-1130,2710
5.717227,-1231,-1137,2351
5.717351,-1221,-1154,2121
5.717473,-1197,-1172,1758
5.717596,-1141,-1194,1489
5.717725,-1027,-1216,1103
5.717837,-980,-1263,810
5.717949,-907,-1327,342
5.718055,-816,-1353,76
5.718174,-719,-1395,-346
5.718293,-632,-1424,-619
5.718415,-474,-1450,-1030
5.718538,-327,-1482,-1264
5.771903,-151,-1485,-1617
5.772039,-44,-1494,-1835
5.772159,115,-1483,-2149
5.772275,180,-1484,-2333
5.772392,352,-1513,-2600
5.772508,459,-1534,-2793
5.772623,534,-1538,-3023
5.772759,560,-1562,-3146
5.772885,626,-1572,-3304
5.772996,654,-1578,-3402
5.773104,680,-1627,-3517
5.773212,620,-1638,-3585
5.773319,678,-1639,-3538
5.773426,746,-1695,-3569
5.773534,731,-1746,-3652
5.773642,167,-1395,-2425
5.773749,98,-1327,-2250
5.817785,-7,-1265,-1978
5.817915,-73,-1205,-1773
5.818039,-195,-1140,-1418
5.818162,-275,-1100,-1136
5.818279,-396,-1049,-720
5.818396,-499,-1010,-406
5.818496,-651,-956,64
5.818602,-740,-910,396
5.818715,-866,-864,900
5.818835,-950,-840,1256
5.818961,-1041,-800,1755
5.819086,-1083,-772,2098
5.862363,-1182,-675,2876
5.862498,-1198,-657,3303
5.862617,-1204,-656,3569
5.896796,-1212,-648,3920
5.896944,-1201,-630,4152
5.897072,-1159,-625,4436
5.897198,-1144,-616,4596
5.897324,-1120,-561,4877
5.897449,-1147,-553,4989
5.897573,-1183,-538,5178
5.897699,-1189,-515,5321
5.897831,-1153,-531,5508
5.897956,-1152,-545,5595
5.898082,-1158,-579,5734
5.898208,-1203,-775,4263
5.963807,-1211,-780,4072
5.963959,-1214,-788,3927
5.964090,-1205,-783,3721
5.964220,-1202,-790,3591
5.964348,-1188,-792,3418
5.964474,-1174,-799,3304
5.964601,-1172,-785,3108
5.964736,-1168,-791,2982
5.964862,-1165,-786,2795
5.964982,-1156,-803,2655
5.965100,-1108,-825,2461
5.965217,-1086,-828,2333
5.965334,-1039,-844,2120
5.965447,-988,-876,1973
6.034938,-936,-874,1737
6.047989,-877,-862,1565
6.048099,-742,-798,1277
6.048194,-735,-884,1015
6.088610,-672,-1012,751
6.088720,-530,-973,549
6.088811,-402,-949,139
6.088907,-343,-967,-147
6.089009,-34,-1510,-2521
6.089111,-38,-1542,-2563
6.089215,-40,-1562,-2594
6.089315,-68,-1587,-2594
6.133051,-60,-1595,-2563
6.133176,-49,-1610,-2524
6.133282,-43,-1597,-2505
6.133386,-19,-1589,-2485
6.133482,1,-1556,-2462
6.133581,13,-1508,-2456
6.133679,28,-1436,-2418
6.176919,37,-1387,-2434
6.177034,48,-1323,-2405
6.177134,37,-1298,-2360
6.177231,39,-1271,-2313
6.177342,-1892,-1240,4885
6.177452,-1843,-1217,4994
6.177560,-1826,-1209,5123
6.177666,-1818,-1200,5202
6.177780,-1793,-1193,5243
6.177887,-1785,-1161,5270
6.177992,-1770,-1158,5265
6.178098,-1763,-1170,5261
6.178204,-1744,-1165,5234
6.178311,-1738,-1180,5164
6.178418,-1730,-1174,5131
6.178524,-1548,-1094,2667
6.178630,-1514,-1073,2487
6.178743,-1465,-1056,2256
6.178849,-1444,-1021,2101
6.178955,-1371,-1046,1793
6.194096,-1301,-1045,1591
6.194248,-1213,-1064,1302
6.194381,-1178,-1064,1099
6.194484,-1127,-1078,780
6.194587,-1080,-1102,599
6.230017,-1038,-1122,371
6.230125,-943,-1170,69
6.230231,-832,-1188,-209
6.230334,-774,-1230,-434
6.230436,-668,-1274,-743
6.230591,-615,-1307,-930
6.230697,-511,-1327,-1242
6.230896,-438,-1349,-1421
6.231011,-333,-1357,-1698
6.231120,-282,-1369,-1883
6.231232,-190,-1413,-2059
6.248868,-132,-1439,-2181
6.248991,-69,-1440,-2353
6.249096,-39,-1432,-2462
6.249194,-8,-1429,-2557
6.249322,3,-1434,-2624
6.249421,48,-1451,-2654
6.249517,67,-1460,-2680
6.249620,107,-1471,-2663
6.249728,175,-1364,-2272
6.249829,188,-1326,-2240
6.249931,212,-1301,-2184
6.250034,228,-1290,-2160
6.250167,260,-1233,-2085
6.272830,251,-1209,-2038
6.272950,229,-1151,-1965
6.273051,216,-1108,-1880
6.273148,159,-1039,-1752
6.273244,114,-1003,-1643
6.273332,18,-964,-1470
6.273425,-51,-935,-1313
6.273521,-216,-924,-1079
6.273612,-332,-922,-888
6.273722,-482,-947,-600
6.273814,-576,-956,-371
6.273901,-686,-995,-35
6.316628,-735,-1021,166
6.316800,-805,-1018,463
6.316903,-855,-992,667
6.317004,-930,-951,905
6.317108,-980,-906,1070
6.317216,-1047,-875,1309
6.317324,-1069,-847,1482
6.317432,-1112,-835,1720
6.317540,-1121,-834,1856
6.317679,-1129,-789,2088
6.317796,-1176,-765,2263
6.317907,-1241,-721,2481
6.318016,-1255,-720,2634
6.318124,-1314,-722,2865
6.318232,-1358,-735,3057
6.318340,-1412,-762,3303
6.318448,-1469,-790,3503
6.355010,-1527,-859,3772
6.355211,-1565,-870,3945
6.355342,-1683,-896,4232
6.355471,-1737,-944,4395
6.355604,-1741,-1020,4635
6.355743,-1762,-1050,4835
6.355875,-1874,-1076,4996
6.356009,-1921,-1075,5123
6.356139,-1949,-1028,5311
6.356270,-1925,-1110,5426
6.356402,-1903,-1132,5468
6.356532,-1870,-1134,5491
6.356695,-1810,-1159,5456
6.378358,-1895,-1062,5471
6.378514,-1946,-1059,5381
6.378649,-1904,-1047,5380
6.378796,-1861,-1027,5319
6.378931,-1843,-1035,5264
6.379063,-1815,-1022,5119
6.379197,-1821,-1010,5014
6.379323,-1834,-998,4879
6.379455,-1843,-1007,4787
6.379581,-1848,-996,4634
6.379729,-1845,-991,4527
6.418939,-1843,-997,4325
6.419068,-1837,-992,4218
6.419180,-1824,-974,4023
6.419289,-1814,-973,3890
6.419396,-1795,-946,3688
6.419505,-1763,-935,3560
6.419612,-1720,-913,3338
6.419736,-1685,-874,3098
6.419853,-1634,-844,2963
6.419973,-1585,-808,2673
6.420094,-1550,-770,2524
6.420211,-1482,-731,2268
6.420329,-1412,-721,2091
6.420446,-1369,-714,1948
6.420562,-1264,-713,1679
6.420678,-1141,-711,1380
6.463319,-1078,-717,1128
6.463424,-972,-724,801
6.463514,-905,-722,564
6.463601,-831,-754,235
6.463679,-782,-787,0
6.463778,-729,-810,-245
6.463870,-693,-849,-614
6.463962,-651,-894,-903
6.464057,-624,-935,-1077
6.464157,-591,-1038,-1309
6.464257,-580,-1086,-1434
6.464358,-540,-1168,-1577
6.464459,-538,-1213,-1632
6.464560,-457,-1296,-1715
6.464660,-455,-1304,-1802
6.464765,-431,-1354,-1875
6.464865,-429,-1379,-1931
6.465017,-412,-1402,-1987
6.503107,-381,-1404,-1981
6.503224,-347,-1453,-2029
6.503327,-331,-1453,-2067
6.503431,-277,-1448,-2037
6.503531,-248,-1436,-2018
6.503630,-198,-1453,-2097
6.503736,-151,-1447,-2148
6.503831,-78,-1411,-2169
6.503922,-9,-1408,-2208
6.504013,93,-1370,-2282
6.504109,130,-1350,-2315
6.504205,230,-1332,-2388
6.504300,293,-1296,-2418
6.504395,385,-1261,-2445
6.504490,406,-1250,-2475
6.504584,466,-1213,-2502
6.504679,496,-1213,-2492
6.548953,514,-1187,-2482
6.549074,491,-1176,-2464
6.549179,470,-1147,-2420
6.549281,442,-1130,-2373
6.549383,379,-1081,-2260
6.549486,338,-1051,-2155
6.549584,218,-999,-1968
6.549681,136,-994,-1822
6.549777,8,-973,-1571
6.549876,-69,-978,-1377
6.564605,-207,-991,-1055
6.564723,-288,-997,-820
6.564817,-461,-973,-482
6.564908,-610,-951,-228
6.564995,-836,-941,207
6.565081,-982,-936,489
6.565172,-1160,-974,960
6.565270,-1258,-993,1242
6.600969,-1380,-1017,1653
6.601084,-1466,-1026,1925
6.601187,-1536,-1056,2325
6.601288,-1607,-1095,2578
6.601389,-1677,-1125,2939
6.601490,-1726,-1156,3177
6.601589,-1734,-1179,3507
6.601689,-1738,-1173,3716
6.601831,-1799,-1189,3988
6.601932,-1803,-1193,4146
6.602032,-1810,-1177,4392
6.602131,-1787,-1174,4536
6.602230,-1783,-1172,4701
6.602331,-1787,-1182,4813
6.602430,-1774,-1169,4961
6.602530,-1760,-1178,5031
6.602643,-1767,-1160,5140
6.602747,-1776,-1165,5185
6.602846,-1731,-1177,5264
6.602945,-1761,-1165,5282
6.619107,-1825,-1172,5300
6.619275,-1837,-1180,5281
6.619397,-1824,-1178,5281
6.619515,-1838,-1189,5211
6.619632,-1860,-1203,5133
6.619758,-1895,-1216,5075
6.619874,-1916,-1248,4932
6.619991,-1933,-1262,4806
6.644672,-1925,-1280,4701
6.644811,-1936,-1280,4574
6.644914,-1940,-1268,4377
6.645016,-1954,-1272,4251
6.645116,-1954,-1258,4039
6.645215,-1976,-1247,3924
6.645315,-1959,-1272,3690
6.645414,-1942,-1253,3555
6.645515,-1914,-1230,3317
6.645615,-1897,-1221,3172
6.645722,-1842,-1206,2932
6.685995,-1824,-1183,2764
6.686141,-1763,-1151,2466
6.686267,-1725,-1130,2269
6.686389,-1668,-1087,1924
6.686510,-1625,-1079,1705
6.686631,-1520,-1078,1340
6.686771,-1446,-1084,1083
6.686887,-1379,-1078,734
6.687005,-1333,-1086,490
6.687123,-1266,-1076,185
6.687230,-1210,-1081,8
6.687354,-1162,-1089,-198
6.687477,-1125,-1104,-342
6.687601,-1063,-1129,-512
6.687730,-1047,-1136,-563
6.719878,-1010,-1165,-668
6.720017,-986,-1198,-713
6.720138,-952,-1228,-770
6.720259,-947,-1234,-816
6.720378,-895,-1239,-907
6.720534,-865,-1248,-987
6.720658,-791,-1259,-1108
6.720806,-725,-1264,-1205
6.720931,-666,-1281,-1366
6.721055,-604,-1299,-1456
6.721179,-503,-1306,-1594
6.721303,-454,-1314,-1712
6.721427,-377,-1319,-1853
6.721551,-327,-1323,-1922
6.721673,-237,-1324,-2043
6.721803,-182,-1321,-2127
6.741215,-100,-1318,-2244
6.741363,-49,-1351,-2317
6.741489,31,-1367,-2412
6.741612,59,-1343,-2467
6.741795,109,-1341,-2555
6.780685,140,-1341,-2578
6.780841,173,-1348,-2655
6.780947,188,-1345,-2673
6.781050,187,-1358,-2652
6.781152,191,-1357,-2623
6.781253,187,-1371,-2566
6.781355,159,-1345,-2517
6.781457,130,-1335,-2425
6.781558,116,-1326,-2356
6.781656,76,-1269,-2246
6.781758,62,-1215,-2154
6.781850,9,-1165,-1991
6.781954,-53,-1124,-1842
6.782061,-141,-1064,-1591
6.782167,-206,-1045,-1389
6.782273,-306,-1007,-1039
6.782371,-390,-976,-813
6.782469,-504,-961,-389
6.782561,-562,-938,-93
6.815492,-690,-923,366
6.815619,-788,-894,693
6.815738,-923,-860,1188
6.815836,-1035,-833,1503
6.815935,-1186,-790,1988
6.816032,-1272,-783,2345
6.816129,-1365,-825,2858
6.816227,-1402,-864,3211
6.816323,-1483,-886,3733
6.816421,-1546,-936,4029
6.816516,-1629,-978,4510
6.816617,-1673,-1015,4788
6.833410,-1681,-1126,5346
6.833542,-1751,-1145,5645
6.833660,-1801,-1179,5754
6.833786,-1833,-1168,5905
6.833928,-1822,-1179,5954
6.858175,-1768,-1211,5949
6.858293,-1747,-1223,5939
6.858400,-1681,-1229,5862
6.858502,-1664,-1228,5810
6.858604,-1614,-1180,5680
6.858728,-1602,-1154,5561
6.858831,-1580,-1120,5369
6.858932,-1549,-1082,5254
6.859036,-1525,-1077,5027
6.859136,-1523,-1065,4896
6.859236,-1522,-1058,4673
6.896509,-1505,-1063,4337
6.896620,-1498,-1073,4209
6.896775,-1495,-1063,4020
6.896871,-1518,-1074,3894
6.896967,-1516,-1077,3687
6.897061,-1525,-1073,3568
6.897156,-1551,-1062,3368
6.897251,-1546,-1052,3228
6.897346,-1528,-1075,3000
6.897440,-1523,-1081,2834
6.897536,-1516,-1081,2600
6.897630,-1497,-1080,2421
6.897728,-1445,-1081,2098
6.897823,-1400,-1083,1904
6.939518,-1325,-1097,1579
6.939661,-1278,-1096,1358
6.939815,-1210,-1091,997
6.939934,-1165,-1108,742
6.940053,-1081,-1132,364
6.940205,-1036,-1145,116
6.940323,-982,-1194,-258
6.940440,-942,-1191,-447
6.940558,-914,-1227,-703
6.940676,-898,-1271,-859
6.940806,-805,-1322,-1084
6.940934,-841,-1337,-1175
6.941057,-839,-1380,-1301
6.941180,-848,-1392,-1350
6.941302,-806,-1436,-1418
6.958176,-783,-1448,-1473
6.958312,-720,-1506,-1526
6.958431,-699,-1524,-1583
6.958548,-652,-1564,-1691
6.958665,-618,-1584,-1745
6.958789,-503,-1629,-1820
6.982351,-533,-1535,-2072
6.982475,-501,-1538,-2151
6.982585,-399,-1578,-2244
6.982692,-333,-1598,-2312
6.982824,-243,-1602,-2413
6.982931,-193,-1620,-2465
6.983078,-134,-1597,-2529
6.983183,-90,-1581,-2585
6.983285,-23,-1563,-2664
6.983382,31,-1564,-2665
6.983479,76,-1526,-2700
6.983581,101,-1499,-2706
7.022287,182,-1405,-2704
7.022410,222,-1336,-2654
7.022519,221,-1300,-2604
7.022623,227,-1233,-2491
7.022749,216,-1179,-2392
7.022858,157,-1099,-2236
7.022963,99,-1053,-2107
7.023069,-1,-1014,-1868
7.023175,-84,-988,-1676
7.023286,-207,-974,-1383
7.023399,-282,-977,-1142
7.023505,-374,-975,-767
7.056985,-446,-964,-485
7.057114,-545,-955,-76
7.057227,-613,-926,190
7.057337,-744,-887,618
7.057443,-815,-845,899
7.057556,-955,-808,1352
7.057679,-1025,-778,1659
7.057819,-1111,-771,2143
7.057939,-1185,-781,2477
7.058058,-1326,-814,3000
7.058176,-1424,-831,3387
7.058295,-1520,-902,3955
7.058414,-1552,-933,4345
7.058538,-1638,-1025,4877
7.077854,-1679,-1074,5206
7.078027,-1633,-1141,5648
7.078146,-1578,-1192,5917
7.078261,-1526,-1200,6188
7.078378,-1577,-1136,6330
7.114674,-1599,-1074,6440
7.114808,-1586,-1032,6510
7.114917,-1520,-1022,6544
7.115023,-1478,-1005,6539
7.115123,-1402,-962,6491
7.115224,-1369,-935,6423
7.115324,-1337,-887,6314
7.115425,-1297,-850,6221
7.115527,-1254,-809,6074
7.115628,-1252,-794,5962
7.115732,-1245,-793,5747
7.115833,-1245,-781,5613
7.115933,-1264,-788,5407
7.116035,-1266,-795,5261
7.116138,-1292,-785,5075
7.116242,-1308,-799,4950
7.116343,-1332,-810,4785
7.116444,-1375,-814,4652
7.116545,-1404,-847,4491
7.116646,-1421,-843,4329
7.116754,-1432,-845,4107
7.147833,-1437,-851,3936
7.147947,-1444,-835,3671
7.148048,-1429,-835,3495
7.164576,-1397,-804,3216
7.186573,-1325,-756,2790
7.186698,-1274,-729,2604
7.186863,-1208,-700,2286
7.186971,-1158,-692,2124
7.187078,-1063,-674,1843
7.187186,-1001,-646,1682
7.187289,-899,-639,1404
7.238719,-832,-626,1196
7.238842,-735,-636,893
7.238945,-658,-646,657
7.239072,-580,-685,305
7.239178,-574,-707,68
7.239284,-523,-739,-234
7.239407,-1022,-1577,-1634
7.239526,-1019,-1600,-1677
7.239639,-987,-1598,-1711
7.239784,-881,-1598,-1756
7.239900,-876,-1604,-1797
7.240022,-814,-1475,-1934
7.240144,-733,-1453,-1995
7.240265,-587,-1436,-2112
7.240387,-495,-1419,-2210
7.240509,-324,-1383,-2367
7.240632,-226,-1352,-2486
7.240770,-88,-1289,-2678
7.240883,-5,-1238,-2783
7.241003,124,-1221,-2966
7.241129,224,-1204,-3065
7.241254,341,-1191,-3222
7.241379,415,-1175,-3327
7.274853,477,-1183,-3434
7.274991,515,-1166,-3504
7.275123,501,-1171,-3576
7.275333,495,-1171,-3586
7.275511,485,-1181,-3532
7.275640,473,-1160,-3519
7.275777,445,-1138,-3441
7.275897,446,-1101,-3368
7.276014,444,-1028,-3272
7.276126,429,-985,-3210
7.276238,401,-880,-3109
7.276349,391,-835,-3025
7.276475,321,-726,-2860
7.276587,275,-668,-2731
7.276699,163,-548,-2532
7.296045,63,-478,-2359
7.296162,-70,-404,-2065
7.337510,-153,-382,-1812
7.337742,-243,-361,-1442
7.337865,-338,-369,-1202
7.337977,-451,-363,-840
7.338091,-537,-352,-613
7.373318,-642,-338,-290
7.373445,-703,-307,-96
7.373554,-763,-295,199
7.373661,-807,-290,344
7.373793,-854,-246,568
7.373898,-870,-251,696
7.374003,-921,-236,891
7.374113,-958,-237,1042
7.374266,-1047,-248,1295
7.374382,-1115,-263,1477
7.414436,-1235,-290,1798
7.414549,-1300,-352,2020
7.414646,-1400,-421,2369
7.414746,-1487,-499,2592
7.414842,-1598,-624,2973
7.414937,-1644,-711,3218
7.415031,-1713,-844,3528
7.415130,-2199,-1696,5263
7.415231,-2166,-1684,5106
7.415331,-2163,-1699,5008
7.415430,-2142,-1689,4868
7.415529,-2137,-1680,4752
7.415628,-2125,-1675,4597
7.415745,-2121,-1670,4499
7.415844,-2097,-1671,4330
7.415945,-2081,-1654,4209
7.416045,-2059,-1624,4011
7.416146,-2051,-1585,3865
7.416245,-2021,-1541,3670
7.416345,-1992,-1517,3516
7.416445,-1946,-1472,3292
7.461002,-1918,-1441,3143
7.461129,-1877,-1407,2914
7.461239,-1838,-1364,2760
7.461349,-1785,-1320,2528
7.461456,-1725,-1300,2389
7.461563,-1664,-1250,2153
7.461669,-1619,-1230,2029
7.461780,-1546,-1182,1813
7.461886,-1504,-1148,1661
7.461992,-1429,-1140,1469
7.462099,-1403,-1127,1332
7.462205,-1332,-1099,1131
7.462311,-1294,-1089,1026
7.462413,-1246,-1060,843
7.462515,-1214,-1056,720
7.462616,-1156,-1024,529
7.462733,-1123,-1022,395
7.476837,-1056,-1011,192
7.476962,-1002,-1004,28
7.477072,-959,-992,-175
7.477183,-932,-1007,-309
7.477293,-865,-1004,-558
7.477402,-831,-1023,-696
7.477511,-792,-1041,-944
7.477625,-745,-1071,-1131
7.513638,-675,-1114,-1408
7.513771,-633,-1126,-1607
7.513882,-587,-1145,-1936
7.513990,-558,-1135,-2139
7.514097,-466,-1220,-2402
7.514203,-420,-1290,-2553
7.514309,-326,-1327,-2788
7.514415,-294,-1326,-2941
7.514535,-195,-1336,-3104
7.514642,-146,-1269,-3210
7.514825,-132,-1287,-3290
7.514948,-121,-1326,-3321
7.515058,-58,-1372,-3316
7.515169,-17,-1379,-3261
7.515273,-2,-1362,-3198
7.533423,-1,-1338,-3141
7.533551,9,-1302,-3067
7.533661,6,-1276,-2993
7.533812,39,-1235,-2912
7.533926,68,-1196,-2870
7.534043,112,-1130,-2781
7.534160,130,-1066,-2756
7.534306,163,-984,-2654
7.559027,192,-929,-2616
7.559141,231,-843,-2480
7.559241,241,-796,-2373
7.559337,229,-723,-2210
7.559434,227,-675,-2098
7.559530,175,-611,-1907
7.559627,133,-560,-1721
7.559749,58,-517,-1455
7.559839,9,-484,-1249
7.597869,-95,-461,-934
7.597982,-152,-439,-708
7.598080,-274,-429,-368
7.598173,-365,-434,-164
7.598259,-500,-405,180
7.598347,-615,-393,421
7.598434,-786,-375,795
7.598526,-891,-397,1059
7.598622,-1002,-470,1454
7.598723,-1077,-523,1728
7.598819,-1246,-584,2141
7.598915,-1342,-633,2429
7.599010,-1472,-702,2871
7.599106,-1571,-769,3157
7.649029,-1688,-887,3588
7.649163,-1728,-951,3885
7.649336,-1733,-1075,4280
7.649452,-1753,-1129,4555
7.649567,-1869,-1225,4908
7.649682,-1903,-1263,5128
7.649824,-1931,-1261,5366
7.649941,-1909,-1287,5525
7.650059,-1896,-1356,5705
7.650175,-1877,-1399,5776
7.650293,-1842,-1439,5824
7.650408,-1816,-1426,5831
7.650556,-1791,-1412,5818
7.650670,-1776,-1387,5766
7.650793,-1754,-1373,5643
7.650908,-1734,-1360,5579
7.651023,-1687,-1365,5418
7.651136,-1680,-1364,5303
7.651251,-1655,-1335,5126
7.651366,-1644,-1313,5000
7.651480,-1648,-1299,4822
7.651594,-1646,-1300,4700
7.666218,-1687,-1281,4525
7.666345,-1700,-1280,4422
7.666456,-1727,-1297,4227
7.666563,-1756,-1310,4117
7.666671,-1779,-1320,3920
7.701051,-1795,-1309,3802
7.701176,-1815,-1296,3584
7.701286,-1840,-1279,3433
7.701395,-1843,-1244,3189
7.701502,-1845,-1230,3014
7.701611,-1845,-1213,2753
7.701726,-1819,-1196,2580
7.701833,-1809,-1167,2317
7.701938,-1797,-1147,2165
7.702046,-1746,-1102,1903
7.702155,-1716,-1075,1754
7.702262,-1648,-1048,1527
7.702368,-1619,-1020,1351
7.702471,-1562,-982,1131
7.702568,-1511,-964,987
7.702666,-1427,-957,783
7.702769,-1375,-941,597
7.718929,-1310,-932,343
7.719066,-1260,-938,169
7.719182,-1174,-930,-83
7.719343,-1101,-941,-281
7.719458,-978,-957,-598
7.719570,-923,-970,-769
7.719690,-883,-983,-1037
7.756209,-836,-1009,-1182
7.756346,-771,-1034,-1410
7.756463,-728,-1044,-1571
7.756579,-694,-1084,-1745
7.756693,-659,-1103,-1845
7.756825,-634,-1148,-1972
7.756946,-622,-1171,-2072
7.757066,-582,-1219,-2191
7.757188,-545,-1234,-2269
7.757311,-512,-1284,-2366
7.757433,-467,-1321,-2413
7.757555,-448,-1324,-2483
7.757677,-464,-1309,-2515
7.757805,-379,-1340,-2552
7.794559,-369,-1325,-2571
7.794710,-319,-1337,-2597
7.794836,-293,-1352,-2586
7.794959,-213,-1329,-2582
7.795081,-182,-1319,-2554
7.795203,-116,-1265,-2541
7.795319,-67,-1228,-2545
7.795433,12,-1168,-2525
7.795546,57,-1120,-2500
7.795665,117,-1060,-2502
7.795821,152,-1029,-2471
7.795933,179,-969,-2462
7.796046,174,-910,-2418
7.796157,189,-863,-2363
7.796270,184,-857,-2307
7.796385,147,-810,-2195
7.796496,120,-809,-2096
7.814631,65,-794,-1948
7.814750,21,-801,-1843
7.814852,-45,-803,-1643
7.814954,-79,-797,-1485
7.815059,-151,-814,-1277
7.815165,-201,-822,-1125
7.850953,-292,-817,-880
7.851076,-356,-801,-724
7.851179,-456,-792,-445
7.851276,-519,-780,-259
7.851360,-631,-756,3
7.851454,-696,-756,196
7.851545,-802,-762,461
7.851636,-865,-760,677
7.851737,-966,-787,982
7.851840,-1026,-783,1209
7.851947,-1119,-803,1535
7.852055,-1254,-831,1886
7.852163,-1322,-823,2104
7.852271,-1381,-854,2333
7.852379,-1471,-910,2687
7.882520,-1596,-1057,3190
7.882635,-1647,-1132,3470
7.882748,-1611,-1212,3644
7.882849,-1656,-1212,3864
7.882949,-1787,-1291,4044
7.883050,-1842,-1307,4219
7.883152,-1866,-1284,4392
7.883253,-1883,-1330,4501
7.883354,-1883,-1412,4669
7.883457,-1890,-1439,4778
7.883558,-1878,-1491,4836
7.883659,-1882,-1485,4917
7.900079,-1887,-1528,4937
7.900210,-1916,-1532,4928
7.900322,-1897,-1541,4919
7.900430,-1863,-1540,4848
7.900540,-1854,-1539,4730
7.900647,-1806,-1501,4587
7.900797,-1770,-1498,4485
7.922567,-1788,-1475,4319
7.922690,-1845,-1402,4146
7.922811,-1818,-1405,4002
7.922920,-1757,-1405,3814
7.923027,-1748,-1422,3685
7.923133,-1740,-1409,3502
7.923241,-1752,-1415,3300
7.923347,-1778,-1403,3171
7.923454,-1792,-1392,3010
7.964667,-1794,-1366,2894
7.964795,-1797,-1367,2698
7.964897,-1806,-1365,2565
7.964997,-1805,-1379,2444
7.965098,-1801,-1359,2270
7.965198,-1797,-1378,2100
7.965297,-1791,-1378,1978
7.965397,-1760,-1377,1837
7.965498,-1744,-1365,1741
7.965597,-1717,-1362,1572
7.965697,-1687,-1370,1496
7.965802,-1660,-1355,1317
7.965901,-1659,-1342,1216
7.966002,-1610,-1332,1021
7.966097,-1574,-1323,907
7.966192,-1511,-1327,720
7.966288,-1479,-1309,582
8.003504,-1417,-1296,379
8.003617,-1379,-1288,265
8.003717,-1310,-1279,76
8.003815,-1260,-1272,-74
8.003916,-1148,-1262,-265
8.004016,-1094,-1264,-393
8.004116,-1010,-1262,-574
8.004211,-963,-1245,-660
8.004308,-886,-1221,-807
8.004403,-813,-1228,-914
8.004504,-743,-1214,-1052
8.004604,-706,-1208,-1133
8.004710,-649,-1192,-1222
8.004811,-623,-1202,-1267
8.004911,-573,-1187,-1323
8.034027,-543,-1193,-1354
8.034157,-517,-1210,-1379
8.034273,-490,-1227,-1373
8.034387,-458,-1241,-1369
8.034502,-443,-1246,-1355
8.034616,-442,-1252,-1356
8.034739,-446,-1259,-1332
8.034860,-444,-1253,-1291
8.034982,-436,-1242,-1268
8.035103,-407,-1248,-1232
8.035224,-403,-1244,-1185
8.035347,-373,-1242,-1159
8.053232,-350,-1238,-1104
8.053375,-325,-1211,-1067
8.053500,-303,-1208,-1051
8.053617,-305,-1167,-983
8.053743,-286,-1142,-955
8.053861,-256,-1132,-905
8.076053,-235,-1140,-886
8.076160,-233,-1125,-842
8.076253,-241,-1102,-836
8.076342,-240,-1094,-791
8.076431,-259,-1075,-758
8.076522,-287,-1060,-712
8.114659,-302,-1075,-666
8.114800,-355,-1056,-614
8.114906,-387,-1056,-579
8.115007,-438,-1062,-475
8.115108,-458,-1085,-397
8.115276,-484,-1117,-312
8.115377,-518,-1108,-221
8.115512,-546,-1119,-83
8.115609,-609,-1106,-16
8.115724,-705,-1096,115
8.115820,-761,-1091,234
8.115917,-896,-1105,443
8.116015,-961,-1131,578
8.116115,-1130,-1178,838
8.116221,-1229,-1212,1053
8.116328,-1386,-1267,1343
8.116434,-1516,-1306,1551
8.116540,-1690,-1384,1892
8.116646,-1775,-1462,2153
8.116787,-1899,-1577,2505
8.116894,-1970,-1651,2770
8.116997,-2025,-1740,3120
8.156080,-2049,-1769,3327
8.156212,-2099,-1835,3559
8.156329,-2121,-1857,3709
8.156442,-2138,-1853,3890
8.156554,-2151,-1850,3973
8.156667,-2136,-1824,4077
8.156827,-2115,-1796,4132
8.156941,-2086,-1771,4182
8.157054,-2052,-1768,4182
8.157168,-1996,-1741,4198
8.157281,-1983,-1687,4173
8.157394,-1966,-1650,4141
8.157507,-1963,-1511,4129
8.157619,-1849,-1697,4042
8.157738,-1814,-1624,4002
8.187069,-1793,-1570,3938
8.187202,-1812,-1561,3877
8.187319,-1811,-1524,3752
8.187435,-1822,-1516,3684
8.187550,-1847,-1516,3585
8.187665,-1854,-1509,3519
8.187784,-1886,-1515,3426
8.187891,-1895,-1535,3356
8.187999,-1916,-1552,3249
8.205031,-1930,-1541,3145
8.205159,-1928,-1541,3021
8.205270,-1934,-1523,2913
8.205416,-1919,-1494,2747
8.225926,-1901,-1473,2631
8.226040,-1866,-1429,2444
8.226139,-1823,-1415,2299
8.226236,-1785,-1367,2103
8.226331,-1744,-1322,1930
8.226425,-1668,-1294,1653
8.226520,-1627,-1269,1457
8.226615,-1526,-1240,1193
8.226744,-1477,-1227,985
8.226837,-1391,-1209,725
8.226929,-1337,-1177,529
8.227019,-1255,-1166,294
8.227110,-1207,-1166,141
8.265588,-1141,-1176,-92
8.265735,-1091,-1163,-229
8.265846,-1042,-1178,-432
8.265948,-997,-1226,-530
8.266052,-942,-1242,-671
8.266153,-894,-1252,-786
8.266284,-852,-1275,-898
8.266387,-817,-1280,-973
8.266493,-778,-1284,-1045
8.266599,-748,-1277,-1091
8.266711,-677,-1284,-1155
8.266818,-648,-1302,-1165
8.266924,-606,-1300,-1217
8.267031,-560,-1298,-1232
8.267137,-514,-1273,-1220
8.267242,-469,-1277,-1226
8.267348,-441,-1294,-1203
8.267453,-411,-1311,-1190
8.267562,-376,-1318,-1164
8.304797,-351,-1303,-1141
8.304908,-315,-1302,-1111
8.305005,-289,-1330,-1098
8.305100,-251,-1327,-1100
8.305196,-185,-1331,-1110
8.305291,-137,-1338,-1120
8.305381,-70,-1319,-1150
8.305472,-14,-1308,-1194
8.305558,41,-1305,-1223
8.305645,90,-1278,-1280
8.305739,134,-1258,-1303
8.305831,157,-1217,-1310
8.305927,161,-1207,-1302
8.306023,162,-1225,-1250
8.365985,177,-1225,-1222
8.366117,154,-1249,-1152
8.366232,108,-1274,-1111
8.380235,29,-1287,-1002
8.380355,-14,-1312,-906
8.380462,-81,-1344,-811
8.380573,-136,-1354,-711
8.380683,-224,-1384,-601
8.419071,-257,-1385,-552
8.419222,-302,-1431,-453
8.419350,-320,-1452,-431
8.419478,-344,-1458,-366
8.419603,-346,-1453,-347
8.419736,-365,-1440,-316
8.419861,-361,-1440,-319
8.419985,-366,-1427,-296
8.420105,-382,-1414,-268
8.420224,-403,-1416,-190
8.420339,-433,-1394,-152
8.420449,-493,-1353,-23
8.420556,-513,-1340,78
8.420668,-521,-1350,242
8.420783,-507,-1364,347
8.420893,-499,-1397,491
8.421004,-494,-1429,592
8.421112,-526,-1422,708
8.463491,-541,-1414,768
8.463605,-559,-1394,838
8.463725,-548,-1410,881
8.463868,-559,-1413,917
8.463976,-552,-1422,939
8.464076,-556,-1432,978
8.464178,-553,-1446,1005
8.464354,-544,-1457,1032
8.464457,-564,-1466,1056
8.464561,-566,-1473,1084
8.464663,-579,-1497,1096
