# fs=400.0
t,ax,ay,az
0.020732,40,18,2181
0.020845,38,22,2146
0.020938,56,11,2170
0.021027,33,12,2143
0.021111,34,7,2167
0.021200,33,10,2166
0.021288,30,11,2171
0.021372,42,5,2177
0.021460,37,-1,2168
0.021551,45,4,2157
0.021638,47,12,2154
0.021726,41,11,2153
0.021809,40,4,2167
0.021896,34,16,2160
0.021983,36,13,2158
0.022065,44,8,2158
0.022155,31,12,2167
0.022237,45,1,2151
0.022324,22,14,2170
0.022411,46,12,2170
0.022502,29,7,2167
0.022590,37,17,2158
0.022678,45,15,2166
0.022760,27,9,2158
0.022848,45,10,2161
0.022932,39,6,2164
0.023021,27,4,2162
0.023110,34,2,2157
0.023201,31,8,2168
0.023289,21,3,2158
0.023398,36,-2,2156
0.023492,43,9,2149
0.023582,47,6,2142
0.023677,21,20,2163
0.023773,34,15,2157
0.023862,38,1,2179
0.023957,47,10,2164
0.024052,41,-5,2151
0.024142,32,7,2161
0.024231,43,9,2152
0.024325,34,14,2163
0.024419,39,13,2158
0.024548,46,16,2155
0.075012,40,3,2168
0.075107,45,8,2157
0.075187,39,9,2140
0.075269,36,5,2160
0.075353,41,18,2163
0.075436,49,11,2159
0.075531,33,-1,2155
0.075614,40,14,2178
0.075697,42,12,2155
0.120110,43,8,2148
0.120228,45,16,2152
0.120323,39,2,2156
0.120416,29,1,2151
0.120516,40,7,2167
0.120607,40,8,2149
0.120699,37,7,2157
0.120788,33,8,2179
0.120873,40,4,2172
0.120958,39,4,2170
0.134643,33,9,2155
0.134766,37,17,2173
0.134859,38,7,2169
0.134951,41,5,2169
0.135044,34,6,2172
0.135133,33,5,2174
0.135228,44,20,2167
0.135317,48,0,2162
0.135412,34,17,2171
0.135516,45,6,2160
0.135606,48,4,2171
0.135695,38,4,2160
0.135784,32,3,2157
0.150717,41,12,2165
0.150825,42,10,2150
0.150929,45,3,2156
0.151031,41,8,2153
0.151123,45,21,2167
0.151207,39,6,2175
0.151297,42,18,2169
0.189931,46,15,2169
0.190027,27,11,2162
0.190103,39,7,2151
0.190184,36,-1,2149
0.190262,49,10,2166
0.190340,42,13,2140
0.190419,33,-2,2153
0.190561,36,2,2155
0.190655,44,24,2169
0.190736,42,11,2167
0.190811,35,4,2144
0.190886,27,8,2167
0.190959,43,4,2176
0.191037,35,13,2148
0.191112,42,4,2156
0.223337,32,4,2167
0.223427,35,8,2172
0.223521,37,3,2167
0.223611,43,-4,2147
0.223685,40,8,2156
0.223758,41,8,2158
0.223830,28,6,2172
0.223903,30,3,2169
0.223976,43,8,2159
0.224054,41,-4,2173
0.224133,28,10,2151
0.224205,28,5,2166
0.254829,36,1,2172
0.254932,22,4,2161
0.255018,31,8,2173
0.255109,37,15,2161
0.255192,38,3,2186
0.255281,27,10,2155
0.255364,37,6,2167
0.255447,44,3,2156
0.255538,41,7,2166
0.255621,42,5,2161
0.255704,31,7,2163
0.255794,30,18,2163
0.255883,44,18,2163
0.255967,38,7,2164
0.256057,46,10,2167
0.256144,34,2,2159
0.256228,37,9,2160
0.256318,30,11,2148
0.290260,47,10,2167
0.290346,43,6,2176
0.290419,43,9,2166
0.290498,37,2,2169
0.290566,48,7,2165
0.290635,34,4,2163
0.290709,46,19,2155
0.290777,33,8,2158
0.290846,37,0,2151
0.290919,39,22,2179
0.290987,49,3,2176
0.291055,39,4,2169
0.291128,16,10,2155
0.291200,49,12,2167
0.300847,30,8,2148
0.300940,34,10,2162
0.334848,32,14,2156
0.334944,22,12,2167
0.335025,32,10,2161
0.335102,33,18,2162
0.335182,40,19,2155
0.335255,40,1,2168
0.335333,28,20,2163
0.335411,43,25,2161
0.335483,32,3,2170
0.335569,40,-6,2145
0.335643,40,7,2156
0.335716,39,4,2155
0.335792,36,11,2145
0.335865,43,6,2156
0.335943,37,16,2160
0.367895,29,10,2165
0.368015,34,2,2158
0.368139,40,5,2136
0.368241,35,3,2155
0.368348,42,16,2162
0.368441,45,6,2173
0.368544,33,5,2154
0.368621,36,17,2155
0.368694,45,6,2148
0.368772,36,16,2173
0.368849,40,-7,2155
0.368925,31,16,2154
0.369001,36,-4,2175
0.399977,48,11,2176
0.400082,36,19,2162
0.400173,33,14,2170
0.400261,29,14,2161
0.400344,42,9,2145
0.400432,33,-5,2158
0.400520,34,4,2165
0.400610,28,-1,2171
0.400698,44,11,2158
0.400780,36,5,2161
0.400868,42,16,2174
0.400956,37,15,2152
0.431450,30,9,2150
0.431553,40,15,2166
0.431772,34,6,2157
0.431845,32,3,2183
0.431922,27,6,2158
0.431994,32,14,2162
0.432066,27,11,2177
0.469242,36,8,2151
0.469345,34,0,2158
0.469437,45,11,2172
0.469528,42,8,2182
0.469617,40,-5,2161
0.469700,34,7,2166
0.469783,32,5,2156
0.469870,42,18,2173
0.469956,39,12,2173
0.505102,33,9,2170
0.505201,42,9,2171
0.505282,45,1,2152
0.505359,44,3,2166
0.505441,51,13,2174
0.505550,41,6,2153
0.505626,30,1,2166
0.505702,52,6,2150
0.505778,29,9,2162
0.505859,37,14,2173
0.505936,42,9,2163
0.506012,37,1,2169
0.506094,40,12,2164
0.506176,46,14,2168
0.506259,47,12,2162
0.506342,43,11,2162
0.506424,35,11,2168
0.506510,34,6,2170
0.506593,40,20,2163
0.506669,48,3,2162
0.521079,50,22,2178
0.521181,41,19,2159
0.521263,33,7,2158
0.521346,29,6,2171
0.521425,46,2,2160
0.521512,28,3,2152
0.521596,31,-2,2173
0.539691,35,8,2165
0.539793,38,14,2169
0.539877,29,11,2163
0.539955,41,5,2147
0.540037,33,12,2167
0.540122,42,10,2160
0.540204,27,15,2163
0.571690,36,11,2167
0.571785,42,17,2158
0.571862,39,2,2158
0.571936,32,7,2170
0.572008,39,5,2172
0.572086,34,10,2151
0.572158,42,5,2162
0.572234,31,13,2151
0.602412,40,0,2152
0.602526,47,6,2171
0.602604,34,7,2164
0.602688,33,10,2159
0.602767,34,8,2171
0.602850,33,23,2164
0.602933,37,14,2156
0.603016,43,11,2168
0.603091,38,23,2170
0.603167,36,18,2172
0.603239,30,7,2177
0.603312,36,9,2167
0.603389,39,22,2150
0.603460,35,8,2172
0.633025,33,7,2170
0.633137,35,15,2168
0.633229,38,15,2164
0.633318,38,10,2163
0.633407,39,12,2149
0.633504,38,16,2167
0.633586,44,4,2162
0.633674,37,11,2161
0.633758,40,5,2179
0.662935,40,7,2147
0.663030,31,7,2159
0.663114,30,10,2153
0.663200,40,22,2162
0.663282,37,15,2145
0.663364,37,10,2160
0.663447,38,18,2153
0.663539,37,24,2165
0.663621,40,14,2154
0.692389,37,13,2168
0.719941,37,9,2167
0.720030,39,11,2163
0.720102,33,2,2170
0.720176,44,10,2160
0.749700,41,10,2169
0.749801,43,16,2150
0.749888,32,14,2155
0.749972,38,-2,2169
0.750052,38,6,2158
0.797854,41,4,2159
0.859544,47,10,2171
0.896993,39,19,2159
0.897094,41,11,2162
0.897170,28,1,2148
0.897247,37,7,2171
0.897325,37,19,2165
0.897403,41,11,2160
0.897474,50,7,2145
0.897560,35,-2,2173
0.897638,47,-5,2164
0.927859,41,5,2159
0.927948,42,12,2169
0.928022,46,5,2166
0.928095,36,0,2151
0.928172,37,11,2166
0.928245,35,1,2171
0.928317,48,8,2171
0.928394,37,11,2159
0.928468,35,2,2161
0.959057,32,9,2159
0.959147,35,1,2154
0.959223,47,6,2157
0.959301,26,11,2163
0.959381,37,17,2160
0.959459,34,11,2165
0.959559,47,3,2163
0.959636,41,16,2176
0.959708,43,2,2159
0.959779,35,7,2167
0.959856,32,-3,2168
0.959927,43,8,2162
0.960005,46,10,2160
0.960082,34,14,2161
0.960158,36,12,2169
0.960267,30,18,2160
0.960345,26,12,2161
0.960422,33,11,2140
0.960506,43,12,2150
0.960578,33,3,2153
0.960655,36,19,2154
0.960732,36,19,2166
0.960804,33,1,2153
0.973831,31,11,2158
0.973922,37,9,2165
0.974034,31,8,2159
0.974115,36,12,2154
1.003061,37,12,2150
1.003164,34,9,2167
1.003251,46,8,2152
1.003336,28,2,2168
1.003427,36,18,2167
1.003524,23,16,2166
1.003609,44,3,2162
1.003697,30,12,2174
1.003787,35,18,2167
1.003884,39,16,2158
1.003966,31,8,2156
1.004080,44,3,2157
1.004162,38,6,2162
1.004252,24,10,2160
1.036593,38,9,2158
1.036689,41,7,2154
1.036774,26,12,2183
1.036857,41,19,2160
1.036934,37,7,2164
1.037006,40,7,2176
1.037078,47,0,2175
1.037152,43,3,2159
1.037223,33,3,2145
1.037295,33,3,2175
1.037368,47,3,2151
1.037440,23,6,2174
1.037523,36,21,2187
1.037601,45,15,2142
1.037674,32,5,2154
1.037783,36,12,2155
1.037860,39,17,2168
1.067863,32,-4,2152
1.067968,52,8,2165
1.068055,42,0,2174
1.068139,37,5,2151
1.068229,26,17,2159
1.068318,28,10,2171
1.068408,28,12,2153
1.068499,38,2,2154
1.068588,42,15,2173
1.068677,34,12,2141
1.068761,34,5,2161
1.068849,34,16,2154
1.068932,35,0,2160
1.103904,41,4,2163
1.104020,36,13,2165
1.104110,43,1,2160
1.104195,24,4,2179
1.104286,36,10,2148
1.104370,40,3,2165
1.104454,43,4,2151
1.104548,34,6,2159
1.104668,32,15,2160
1.104795,33,18,2166
1.104887,47,11,2173
1.104971,45,5,2176
1.105077,32,14,2158
1.105166,29,14,2167
1.105252,26,0,2178
1.139090,46,14,2185
1.139240,46,31,2165
1.139364,40,10,2166
1.139474,31,2,2166
1.139568,50,25,2172
1.139647,52,-2,2175
1.139722,38,5,2163
1.139801,38,11,2157
1.139879,30,21,2182
1.139959,30,13,2158
1.140118,39,20,2170
1.140199,38,3,2170
1.175889,39,7,2161
1.175979,29,7,2161
1.176052,27,8,2154
1.176122,45,1,2146
1.176190,38,8,2173
1.176259,33,5,2162
1.176335,42,11,2150
1.176404,28,1,2175
1.176474,42,4,2164
1.176569,46,20,2151
1.176638,37,6,2168
1.176711,29,12,2172
1.176785,34,20,2157
1.176854,32,6,2165
1.176927,39,25,2155
1.177002,38,14,2160
1.188577,35,6,2150
1.188659,27,9,2149
1.188727,31,7,2151
1.188799,34,13,2166
1.188871,31,11,2142
1.212801,25,1,2157
1.212904,41,15,2170
1.212990,47,12,2147
1.213070,33,3,2163
1.213153,33,20,2169
1.213235,30,16,2163
1.213316,32,16,2165
1.213394,28,0,2159
1.213470,44,8,2167
1.213557,31,9,2145
1.241572,33,-1,2160
1.241661,35,12,2168
1.241736,39,14,2164
1.241810,27,15,2163
1.241882,31,21,2163
1.241955,37,13,2170
1.242024,36,6,2169
1.242110,32,5,2156
1.242179,35,0,2165
1.270682,40,27,2156
1.270772,25,1,2169
1.270855,29,-2,2163
1.270929,40,4,2158
1.271007,33,18,2146
1.271085,50,10,2147
1.271158,37,6,2159
1.271230,30,4,2163
1.271303,34,5,2166
1.271382,49,13,2155
1.271460,42,15,2146
1.271539,30,8,2161
1.271617,35,10,2166
1.271690,31,1,2160
1.298633,34,11,2153
1.298723,50,6,2152
1.298805,38,17,2157
1.298880,30,9,2140
1.298958,29,23,2165
1.299036,39,16,2163
1.299114,38,-2,2162
1.299187,30,6,2162
1.328795,29,15,2172
1.328884,49,-4,2168
1.328955,38,8,2165
1.329024,40,8,2151
1.329098,40,13,2168
1.329166,31,2,2161
1.329240,45,11,2171
1.329309,37,2,2153
1.329378,34,0,2162
1.329447,44,7,2178
1.359983,57,5,2167
1.360072,39,16,2161
1.360143,46,7,2158
1.360217,40,-1,2159
1.360286,37,6,2161
1.360355,35,7,2155
1.360423,42,6,2177
1.360502,35,11,2155
1.388000,36,-1,2162
1.388090,54,15,2156
1.388161,44,4,2152
1.388235,31,13,2165
1.388307,49,11,2158
1.388380,44,-3,2162
1.388453,38,15,2167
1.388545,42,14,2158
1.388614,26,4,2161
1.388697,37,34,2150
1.388787,39,20,2173
1.388858,28,1,2148
1.388927,42,8,2173
1.388998,36,0,2162
1.389067,31,7,2166
1.419764,36,14,2160
1.419853,29,11,2170
1.419925,31,5,2166
1.419995,34,5,2164
1.420070,37,18,2172
1.420140,23,6,2169
1.420214,35,15,2165
1.420287,40,11,2164
1.420361,33,24,2148
1.420432,43,3,2152
1.420529,29,13,2145
1.420600,51,7,2164
1.448335,39,1,2151
1.448431,42,11,2145
1.448515,29,5,2164
1.448593,29,12,2163
1.448667,43,0,2165
1.448746,51,10,2148
1.448824,33,10,2153
1.448896,32,4,2170
1.448968,36,5,2163
1.449046,43,16,2168
1.449125,48,-3,2158
1.449202,37,11,2155
1.449277,37,2,2154
1.484656,42,3,2176
1.484741,38,3,2170
1.484811,42,9,2160
1.484881,31,4,2154
1.484950,56,9,2168
1.485025,44,20,2165
1.485100,31,17,2167
1.485169,51,6,2157
1.485242,39,17,2152
1.485316,20,19,2155
1.485389,36,21,2150
1.485462,32,14,2159
1.485563,34,10,2184
1.485638,39,14,2166
1.515460,30,-2,2181
1.515576,38,2,2158
1.515669,45,12,2175
1.515754,25,6,2184
1.515843,40,20,2166
1.515925,31,5,2172
1.516009,40,5,2165
1.516092,31,10,2158
1.516176,38,-3,2172
1.516254,33,4,2157
1.516336,27,-7,2165
1.516415,36,1,2168
1.516509,50,9,2170
1.516586,39,3,2163
1.516669,37,11,2164
1.516752,29,11,2160
1.543574,41,1,2164
1.543664,43,15,2169
1.543736,44,9,2159
1.543809,29,11,2165
1.543882,51,11,2157
1.543954,34,14,2179
1.544055,46,9,2149
1.544123,40,3,2157
1.544195,31,16,2166
1.544265,37,4,2170
1.544333,38,9,2166
1.544405,39,12,2141
1.574539,40,18,2158
1.574640,41,6,2162
1.574728,39,-3,2165
1.574817,41,13,2168
1.574900,42,17,2159
1.574985,37,16,2169
1.575063,30,5,2161
1.575147,21,13,2163
1.575227,45,5,2150
1.575309,39,14,2154
1.575387,36,5,2144
1.605113,44,13,2154
1.605210,33,14,2157
1.605307,42,4,2148
1.605382,43,15,2149
1.605451,37,8,2168
1.605531,37,15,2158
1.605604,42,17,2154
1.605677,49,16,2167
1.605744,35,9,2153
1.605818,31,10,2169
1.605886,26,6,2157
1.636878,42,12,2157
1.636982,36,17,2154
1.637059,31,6,2157
1.637132,35,8,2161
1.637203,41,8,2166
1.637274,33,9,2163
1.637346,36,2,2160
1.637424,43,16,2167
1.637503,37,7,2145
1.637576,49,4,2155
1.637652,46,10,2173
1.637724,35,6,2176
1.637794,47,6,2159
1.637871,38,-4,2159
1.637952,36,20,2174
1.638029,38,11,2148
1.668846,43,6,2165
1.668945,42,3,2166
1.669025,35,9,2154
1.669103,35,3,2166
1.669187,49,20,2191
1.669266,40,4,2157
1.669345,43,2,2169
1.699965,48,13,2162
1.700070,35,8,2171
1.700163,46,12,2153
1.700251,47,10,2172
1.700335,41,4,2160
1.700418,38,2,2159
1.700508,41,9,2172
1.700597,53,-1,2164
1.700684,24,-1,2164
1.700767,38,8,2156
1.700850,49,9,2152
1.700934,44,9,2155
1.701019,43,16,2165
1.701096,28,2,2166
1.701180,33,10,2179
1.701268,37,-11,2173
1.701353,42,16,2176
1.701436,31,10,2162
1.729571,81,2,2177
1.729678,257,-12,2212
1.729770,438,-92,2212
1.729864,727,-189,2179
1.729963,1164,-231,2170
1.730065,1126,-200,2157
1.730153,741,-22,2223
1.730242,593,128,2188
1.730332,309,286,2248
1.730420,275,287,2163
1.730531,276,256,2163
1.730619,338,270,2126
1.759430,246,256,2131
1.759553,264,198,2041
1.759646,306,122,2117
1.759734,398,389,1505
1.759829,-105,241,1545
1.759923,-842,252,2383
1.760010,-966,27,2132
1.760106,-937,-41,2418
1.760204,-545,-314,2236
1.760303,-399,-285,2199
1.760400,-884,-138,2119
1.760526,-579,-152,2040
1.785736,255,-295,2237
1.785836,14,-158,2375
1.785922,43,-105,2289
1.786003,-25,-6,1991
1.786093,-134,-93,2281
1.786177,-8,-131,2317
1.786259,-242,72,2294
1.786347,-273,-33,2290
1.786434,-189,-42,2442
1.801348,-153,19,2429
1.801468,-88,-1,2425
1.801616,-120,-77,2433
1.801731,-125,-188,2194
1.801828,-31,93,2359
1.801938,-127,-18,2456
1.802047,-120,-68,2493
1.826908,-158,-87,2532
1.827019,-192,-85,2448
1.827115,-227,-92,2423
1.827214,-188,-125,2375
1.827313,-151,-165,2484
1.827411,-211,-169,2487
1.827516,-207,-169,2432
1.827613,-200,-148,2489
1.827729,-203,-91,2515
1.827824,-217,-80,2550
1.854127,-145,-109,2605
1.854245,-103,-142,2742
1.854345,-136,-230,2896
1.854443,-185,-286,3110
1.854549,-262,-281,3163
1.854646,-230,-162,3237
1.854744,-115,-331,3434
1.882574,-205,-488,3533
1.882697,-62,-1361,4033
1.882809,-163,-1647,3968
1.882914,-539,-825,3986
1.883017,-477,-546,3976
1.883121,-218,-277,3777
1.883224,-230,-136,3637
1.883316,-91,-78,3458
1.883416,-107,-81,3378
1.910501,-148,-3,3324
1.910615,-146,34,3290
1.910710,-121,84,3207
1.910805,-82,114,3142
1.910895,7,198,3054
1.910998,129,286,3035
1.911098,191,384,2946
1.911200,151,431,2849
1.911294,55,458,2699
1.911395,-14,467,2566
1.938281,-68,493,2378
1.938394,-112,511,2227
1.938499,-112,579,1924
1.938593,-117,628,1766
1.938686,-175,711,1429
1.938782,-236,731,1281
1.938874,-384,726,1081
1.938962,-549,667,981
1.939049,-611,612,655
1.939138,-557,552,402
1.939223,-679,509,368
1.939307,-803,443,302
1.939391,-896,235,229
1.939476,-907,169,159
1.939565,-925,13,141
1.939655,-1064,-10,190
1.939749,-1260,-155,391
1.967794,-1331,-408,878
1.967921,-1172,-552,1411
1.968029,-1203,35,-4554
1.968145,-1291,-473,-1511
1.968251,-1525,-759,793
1.968360,-2186,-704,1561
1.968469,-1521,-935,-103
1.968587,-1366,-480,764
1.968697,-1331,-347,1041
1.968806,-1234,-487,1089
1.968908,-1106,-527,1167
1.994410,-996,-530,1332
1.994525,-808,-521,1647
1.994619,-714,-477,1876
1.994712,-582,-421,2221
1.994803,-460,-419,2434
1.994898,-262,-452,2798
1.994992,-108,-479,3023
1.995077,81,-527,3285
1.995171,224,-544,3440
1.995265,381,-545,3651
1.995359,479,-528,3732
2.021893,587,-451,3877
2.021997,643,-415,3943
2.022087,719,-352,4020
2.022175,772,-310,4062
2.022262,852,-282,4085
2.022351,886,-256,4066
2.022437,894,-236,4018
2.022549,889,-232,3988
2.022636,862,-216,3899
2.022719,724,-20,3895
2.022810,756,-192,3720
2.050304,707,-150,3658
2.050415,595,-135,3517
2.050530,477,-91,3415
2.061339,331,-8,3188
2.061464,218,69,2960
2.061585,62,220,2569
2.088230,-101,357,2152
2.088334,-225,454,1890
2.088423,-328,522,1678
2.119403,-483,599,1388
2.119538,-589,536,1049
2.119636,-639,548,826
2.119730,-712,529,630
2.119825,-873,554,378
2.119924,-1297,-49,343
2.120025,-1064,-271,158
2.120123,-1154,-445,-55
2.120222,-1335,-398,221
2.120321,-1582,-469,328
2.120419,-1725,-833,517
2.120532,-1764,-931,227
2.147331,-1760,-846,1149
2.147465,-1742,-1080,1296
2.147600,-1750,-1095,1249
2.147717,-1723,-1094,1374
2.178597,-1654,-1084,1472
2.204035,-1458,-920,1575
2.204160,-1311,-785,1718
2.204266,-985,-647,2038
2.204372,-757,-578,2233
2.204476,-378,-426,2532
2.204625,-136,-283,2729
2.204726,140,-168,3036
2.204826,302,-115,3215
2.204919,527,-63,3468
2.205008,657,-54,3633
2.205097,834,-88,3822
2.235024,-424,-242,2324
2.235132,-516,-182,1916
2.235227,-576,-147,1613
2.235318,-667,-57,1168
2.235399,-703,52,910
2.235482,-792,171,529
2.249890,-785,361,9
2.249998,-812,414,-173
2.250094,-942,524,-346
2.250187,-829,256,-420
2.250286,-1008,116,-350
2.250387,-885,-112,-209
2.273302,-912,-139,-465
2.273416,-1026,-99,-251
2.273519,-1247,-294,52
2.273619,-1304,-462,139
2.273718,-1341,-749,344
2.273815,-1380,-900,465
2.273917,-1354,-1060,649
2.274018,-1372,-1130,803
2.301339,-1342,-1199,1005
2.301458,-1344,-1184,1117
2.301583,-1357,-1132,1262
2.301684,-1370,-1096,1313
2.301787,-1378,-1044,1334
2.301879,-190,-362,2125
2.301966,102,-372,2496
2.302053,286,-395,2796
2.302140,457,-380,3102
2.302227,751,-419,3424
2.302312,746,-210,3780
2.302399,778,-194,3928
2.302490,810,-154,4085
2.302577,840,-198,4141
2.302664,839,-219,4249
2.302750,837,-259,4289
2.330274,865,-364,4356
2.330388,848,-446,4432
2.330484,837,-537,4474
2.330613,826,-577,4520
2.330706,792,-645,4577
2.330799,756,-611,4584
2.330892,673,-608,4574
2.330984,653,-620,4555
2.355852,581,-466,4398
2.355955,531,-395,4305
2.356045,519,-385,4229
2.356134,505,-394,4104
2.356222,477,-420,4037
2.356309,453,-438,3940
2.356395,388,-396,3858
2.356483,249,-279,3719
2.356598,185,-217,3588
2.356673,3,-54,3284
2.356758,-110,-2,2966
2.356840,-143,75,2388
2.356927,-205,171,1951
2.386019,-306,319,1278
2.386119,-399,423,849
2.386204,-502,600,302
2.386284,-582,776,48
2.386372,-413,300,-345
2.386459,-346,295,-580
2.386573,-375,343,-588
2.386660,-365,291,-511
2.386749,-417,118,-613
2.386833,-363,55,-640
2.386926,-339,-122,-420
2.387018,-351,-207,-322
2.387110,-440,-208,-117
2.387188,-471,-274,8
2.387276,-553,-388,238
2.387366,-625,-487,355
2.396643,-688,-663,547
2.396761,-712,-759,646
2.396863,-754,-856,749
2.423673,-770,-902,830
2.423784,-784,-910,890
2.423880,-812,-905,948
2.423973,-805,-886,995
2.424070,-810,-878,1041
2.424168,-781,-871,1097
2.455321,-753,-860,1129
2.455437,-692,-843,1246
2.455544,-653,-816,1319
2.455643,-562,-798,1549
2.455740,-497,-773,1727
2.455838,-403,-767,2016
2.455936,-330,-787,2233
2.456032,-227,-838,2583
2.456130,-117,-868,2803
2.456220,56,-922,3142
2.456317,301,-987,3341
2.456413,217,-1045,3651
2.456517,386,-1135,3772
2.456609,407,-999,3963
2.456700,474,-960,4069
2.456792,587,-910,4157
2.483863,728,-954,4322
2.483973,853,-895,4459
2.484069,910,-844,4462
2.484163,906,-797,4444
2.484257,868,-762,4424
2.484350,862,-671,4379
2.484444,875,-599,4351
2.484561,914,-488,4246
2.484654,945,-420,4189
2.484747,938,-290,4031
2.484842,933,-247,3972
2.484929,877,-197,3819
2.485016,838,-197,3694
2.485103,822,-287,3604
2.514511,787,-365,3519
2.514638,719,-427,3392
2.514748,671,-427,3301
2.514857,524,-456,3312
2.514970,494,-469,3101
2.515085,454,-407,2960
2.515198,455,-354,2904
2.515310,367,-243,2721
2.515423,243,-130,2531
2.546585,79,-40,2168
2.546840,36,-61,1866
2.546960,-5,-64,1427
2.547057,62,-124,1092
2.547147,-36,-46,708
2.547232,-83,-31,440
2.547315,-96,-20,123
2.547402,-96,-59,-109
2.547504,-88,-96,-346
2.547605,-93,-114,-474
2.547705,-120,-102,-565
2.547802,-224,-54,-607
2.547901,-162,-271,-534
2.547999,-172,-330,-521
2.578400,-239,-394,-442
2.578532,-278,-418,-398
2.578639,-301,-527,-302
2.578742,-322,-574,-248
2.578846,-325,-606,-366
2.578949,-298,-611,-314
2.579089,-348,-627,-117
2.579191,-348,-638,-146
2.579296,-358,-656,-167
2.579401,-354,-626,-194
2.579527,-350,-599,-228
2.579631,-373,-581,-246
2.606584,-378,-535,-274
2.606700,-380,-501,-292
2.606799,-383,-419,-321
2.606897,-389,-346,-333
2.606994,-407,-231,-360
2.607091,-398,-184,-351
2.607188,-429,-166,-233
2.607285,-470,-162,-105
2.638251,-506,-193,133
2.638372,-569,-241,369
2.638474,-701,-388,793
2.667169,-952,-871,1705
2.667304,-950,-1195,2036
2.667423,-807,-1710,2584
2.667554,-878,-1749,2972
2.667672,-899,-1968,3576
2.667789,-834,-2205,3873
2.667913,-1147,-1990,4354
2.668026,-808,-2493,4767
2.696091,-441,-2512,5273
2.696218,-341,-2356,5495
2.696329,-299,-2224,5608
2.696429,225,-627,4885
2.696549,223,-531,4653
2.696649,279,-483,4494
2.696755,-645,-761,4322
2.696859,-171,-355,4534
2.696956,-69,-599,4116
2.697044,42,-611,3811
2.697133,80,-643,3724
2.697222,63,-668,3638
2.722480,63,-661,3451
2.722608,85,-675,3328
2.722698,151,-765,3183
2.722826,147,-787,3164
2.722912,101,-747,3048
2.722999,100,-697,2939
2.723083,82,-601,2784
2.723165,71,-571,2569
2.723252,207,-714,2477
2.723339,260,-802,2446
2.751094,357,-924,2359
2.751223,397,-974,2318
2.751320,422,-998,2238
2.751412,426,-975,2148
2.751565,420,-900,1946
2.751657,416,-839,1777
2.751748,341,-737,1517
2.751840,312,-677,1298
2.751927,284,-596,994
2.752015,257,-570,803
2.752102,251,-474,570
2.752188,251,-468,378
2.752274,244,-492,209
2.752357,237,-505,61
2.752444,207,-548,-99
2.752541,188,-560,-200
2.752633,123,-551,-335
2.752757,103,-564,-466
2.752845,21,-544,-592
2.765977,-24,-545,-758
2.766115,-60,-519,-869
2.766233,-50,-554,-952
2.789198,-65,-574,-1077
2.789321,-74,-559,-1098
2.789428,-54,-568,-1150
2.789537,-9,-543,-1157
2.789642,66,-512,-1158
2.789744,88,-519,-1194
2.789851,194,-455,-1263
2.789954,246,-344,-1302
2.790057,373,-190,-1270
2.790155,459,-74,-1251
2.820731,595,143,-1240
2.820846,635,280,-1209
2.820942,666,345,-1139
2.821089,734,414,-953
2.821177,724,487,-807
2.821265,776,492,-558
2.821352,761,484,-334
2.821435,704,496,-17
2.821524,636,450,223
2.821607,500,346,576
2.821690,359,224,851
2.821769,111,5,1346
2.850950,-61,-190,1705
2.851074,-347,-518,2293
2.851180,-505,-763,2724
2.851290,-674,-1114,3374
2.851399,-677,-1384,3792
2.851538,-610,-1782,4390
2.851649,-877,-2090,4795
2.881008,-697,-2373,5361
2.881145,-648,-2560,5703
2.881265,-560,-2755,6105
2.881382,-493,-2827,6316
2.881520,-351,-2897,6504
2.881637,-295,-2843,6547
2.881754,-271,-2720,6514
2.881871,-312,-2608,6429
2.881990,-369,-2355,6195
2.882110,-398,-2143,6010
2.882226,-373,-1849,5741
2.882343,-375,-1678,5529
2.882461,-326,-1401,5190
2.908704,-212,-1230,4986
2.908821,-678,-888,4718
2.908926,-662,-1011,4469
2.909028,-533,-1005,4403
2.909126,-483,-993,3998
2.909223,-410,-961,3809
2.909320,-422,-959,3673
2.909419,-417,-998,3450
2.909558,-402,-1032,3327
2.938828,-343,-1022,3175
2.938942,-269,-1016,3071
2.939040,-148,-1129,2938
2.939132,-62,-1209,2922
2.939221,35,-1240,2851
2.939310,99,-1242,2800
2.939401,184,-1226,2742
2.939500,210,-1140,2737
2.939588,250,-969,2588
2.939676,278,-891,2521
2.939764,367,-843,2167
2.939853,438,-742,2127
2.939940,578,-664,2077
2.940027,672,-711,2036
2.940114,760,-768,2037
2.967896,774,-772,1999
2.968013,795,-767,1878
2.968116,809,-809,1872
2.968215,785,-730,1718
2.968315,749,-717,1571
2.968412,738,-698,1333
2.968535,700,-683,1154
2.968630,664,-659,885
2.968726,627,-642,698
2.968820,539,-565,510
2.968914,513,-579,392
2.969004,500,-651,231
2.969092,494,-727,128
2.969179,446,-792,-69
2.995040,394,-777,-129
2.995148,329,-733,-204
2.995247,325,-745,-248
2.995339,347,-782,-348
2.995432,347,-769,-405
2.995552,356,-705,-443
2.995645,376,-641,-509
2.995737,459,-603,-597
2.995829,503,-554,-727
2.995922,559,-429,-832
2.996013,618,-383,-902
2.996112,680,-328,-949
2.996218,729,-296,-1071
3.009758,729,-143,-1160
3.009875,802,-114,-1246
3.009979,860,-120,-1351
3.010077,873,-116,-1396
3.010171,882,-87,-1403
3.010266,891,-69,-1391
3.033689,931,-61,-1329
3.033818,953,-19,-1268
3.033928,989,-13,-1129
3.034022,981,20,-998
3.034113,951,17,-829
3.034198,903,5,-700
3.034287,822,-1,-476
3.061750,604,-153,-116
3.061876,522,-222,88
3.061988,406,-374,347
3.062097,315,-483,538
3.062204,194,-599,838
3.062389,91,-662,1080
3.062528,-29,-755,1472
3.062644,-98,-852,1755
3.062766,-170,-974,2156
3.062895,-202,-1068,2436
3.063022,-170,-1197,2847
3.063149,-129,-1254,3134
3.063270,-88,-1324,3515
3.092852,-102,-1365,3782
3.092975,-171,-1419,4151
3.093080,-235,-1502,4415
3.093184,-339,-1679,4778
3.093287,-376,-1826,5026
3.093390,-424,-2059,5315
3.093532,-445,-2213,5452
3.127805,-487,-2338,5725
3.128061,-537,-2364,5856
3.128264,-683,-2405,5981
3.128386,-748,-2416,6057
3.128516,-620,-2508,6124
3.128632,-623,-2469,6088
3.128757,-1233,-2620,6147
3.128875,-886,-2706,6224
3.128993,-794,-2673,5975
3.129112,-751,-2628,5944
3.129229,-801,-2520,5766
3.129345,-818,-2464,5634
3.163880,-775,-2256,5203
3.164016,-710,-2137,4950
3.164138,-644,-2072,4812
3.164258,-529,-1974,4533
3.164375,-430,-1899,4405
3.164505,-283,-1780,4166
3.164624,-185,-1727,4011
3.164726,9,-1661,3767
3.164841,112,-1585,3632
3.164954,242,-1450,3385
3.165086,334,-1363,3224
3.165198,452,-1199,2952
3.165311,516,-1089,2799
3.165419,580,-959,2486
3.165549,601,-959,2359
3.165657,630,-810,1992
3.165762,646,-626,1938
3.165872,730,-586,1704
3.165986,753,-586,1653
3.194824,802,-654,1550
3.194933,807,-665,1348
3.195027,808,-861,1436
3.195121,758,-828,1388
3.195218,740,-863,1252
3.195316,695,-874,1116
3.195409,605,-871,938
3.195513,538,-809,782
3.195606,452,-726,521
3.195700,418,-603,367
3.195788,316,-670,53
3.195888,216,-686,-125
3.195987,189,-692,-457
3.196087,148,-638,-655
3.196180,83,-575,-863
3.221938,44,-547,-1017
3.222056,49,-545,-1243
3.222158,44,-480,-1423
3.222259,77,-462,-1688
3.222357,85,-460,-1804
3.222462,119,-428,-1958
3.222577,155,-438,-2043
3.222683,164,-371,-2183
3.222787,211,-382,-2207
3.222895,290,-366,-2272
3.251250,333,-322,-2285
3.251384,439,-242,-2349
3.251505,505,-113,-2395
3.251603,648,2,-2433
3.281582,702,82,-2432
3.281718,761,169,-2399
3.281836,787,222,-2347
3.281949,827,297,-2243
3.282063,838,331,-2135
3.282176,808,445,-1884
3.282288,853,446,-1742
3.282401,972,318,-1557
3.282542,963,309,-1273
3.282655,955,243,-1042
3.282762,895,217,-806
3.282864,891,79,-495
3.282966,843,34,-307
3.283050,721,6,93
3.283152,674,-36,336
3.283254,611,-85,725
3.283362,641,-158,969
3.283476,632,-253,1436
3.283596,599,-323,1751
3.311943,583,-451,2303
3.312070,571,-580,2643
3.312177,577,-813,3168
3.312283,643,-987,3524
3.312393,762,-1233,4037
3.312520,830,-1356,4354
3.312631,923,-1484,4787
3.312749,1121,-1247,5090
3.312867,1094,-1565,5403
3.312986,1002,-1711,5565
3.313098,861,-1782,5766
3.313207,836,-1453,5973
3.339096,1030,-1736,6261
3.339201,1155,-1949,6340
3.339295,1071,-1921,6392
3.339383,963,-1805,6413
3.339470,885,-1807,6435
3.339565,882,-1852,6388
3.339652,884,-1938,6288
3.339739,785,-2041,6196
3.339839,717,-2144,6132
3.339925,620,-2212,6002
3.340011,562,-2242,5911
3.340098,528,-2326,5777
3.365656,428,-2301,5674
3.365782,458,-2371,5591
3.365888,504,-2465,5448
3.365993,449,-2192,5221
3.366097,449,-2214,5044
3.395615,428,-2160,4735
3.395733,413,-2151,4498
3.395833,395,-2044,4331
3.395931,414,-1869,4064
3.421776,430,-1788,3870
3.421886,425,-1636,3637
3.421983,409,-1460,3481
3.422076,547,-1587,3237
3.449517,583,-1466,3103
3.449632,605,-1382,2939
3.449732,619,-1235,2677
3.449832,657,-1118,2378
3.460116,681,-1020,2194
3.460231,655,-949,1998
3.460327,614,-857,1749
3.460420,576,-809,1599
3.460543,538,-737,1394
3.487833,-936,-940,-1203
3.519852,-1042,-874,-1361
3.520115,-1268,-658,-1674
3.551519,-1263,-726,-2274
3.551662,-1281,-805,-2328
3.551787,-1154,-936,-3255
3.582910,-1423,-986,-3470
3.583049,-1386,-961,-3584
3.583179,-1385,-1057,-3807
3.583305,-1379,-1056,-3883
3.583432,-1436,-1086,-3854
3.583569,-1317,-1022,-3954
3.583696,-1252,-1028,-3955
3.583816,-1229,-979,-3909
3.583937,-1138,-830,-3821
3.584058,-1090,-738,-3756
3.584173,-922,-647,-3740
3.614858,-1006,-528,-3500
3.614997,-932,-444,-3386
3.615108,-876,-423,-3271
3.615257,-803,-364,-3010
3.615367,1493,-2450,7067
3.615476,1465,-2508,6901
3.615594,1412,-2468,6882
3.615704,1363,-2505,6758
3.615814,1295,-2488,6649
3.615924,1265,-2527,6483
3.616033,1241,-2517,6358
3.616141,1143,-2475,6152
3.616250,1103,-2412,5944
3.616358,1072,-2301,5621
3.616504,1030,-2258,5343
3.644199,969,-2163,4949
3.644307,926,-2070,4664
3.644399,833,-1908,4263
3.644497,787,-1808,3993
3.644588,703,-1722,3625
3.644680,652,-1651,3399
3.644770,553,-1555,3079
3.644859,452,-1524,2870
3.644947,337,-1449,2589
3.645037,260,-1359,2415
3.645134,126,-1284,2129
3.645225,27,-1265,1899
3.645328,-133,-1239,1587
3.645429,-223,-1197,1359
3.645531,-369,-1141,982
3.645628,-473,-1098,698
3.645720,-756,-948,336
3.673276,-825,-1018,27
3.673433,-974,-1036,-409
3.673561,-993,-980,-736
3.673697,-1040,-942,-1217
3.673808,-1153,-946,-1463
3.673914,-1209,-898,-2094
3.674020,-1287,-855,-2369
3.674127,-1410,-818,-2695
3.674233,-1400,-864,-3002
3.674341,-1450,-837,-3287
3.702988,-1478,-788,-3431
3.703123,-1447,-827,-3692
3.703239,-1401,-875,-3813
3.703353,-1358,-911,-4002
3.703466,-1360,-903,-4021
3.703586,-1316,-827,-4035
3.703744,-1273,-799,-3999
3.703890,-1181,-747,-3921
3.704005,-1127,-677,-3823
3.704108,-992,-579,-3679
3.704209,-870,-492,-3565
3.732088,-683,-358,-3389
3.732216,-545,-236,-3269
3.732322,-357,-52,-3060
3.732421,-248,37,-2848
3.732532,-113,135,-2540
3.732630,-24,168,-2281
3.732722,82,153,-1849
3.732821,140,109,-1489
3.732904,192,8,-951
3.732996,202,-117,-541
3.733080,196,-320,77
3.733169,193,-466,520
3.733261,196,-707,1208
3.761665,242,-824,1689
3.761814,379,-989,2349
3.761921,513,-1046,2762
3.762041,771,-1099,3355
3.762149,940,-1094,3680
3.762267,1248,-1045,4185
3.762380,1476,-990,4456
3.762498,1774,-916,4860
3.762609,1978,-869,5075
3.762723,2380,-995,5324
3.762836,2366,-780,5569
3.762947,2488,-727,5864
3.763058,2586,-738,5979
3.763169,2678,-836,6247
3.792571,2691,-935,6367
3.792726,2676,-1079,6559
3.792845,2652,-1183,6657
3.792949,2612,-1343,6806
3.793067,2564,-1477,6843
3.793170,2466,-1602,6921
3.793273,2320,-1640,6989
3.793375,2218,-1764,6945
3.793476,2106,-1797,7039
3.793584,1974,-1920,7124
3.823097,1751,-2069,6788
3.823207,1518,-2075,6679
3.823302,1239,-2050,6487
3.823397,1834,-2113,6551
3.823510,1515,-1995,6121
3.823605,1327,-1933,5909
3.823700,1249,-1808,5568
3.823794,1248,-1723,5279
3.823889,1228,-1633,4825
3.823983,1162,-1560,4499
3.824074,975,-1578,4016
3.853441,774,-1452,3670
3.853563,813,-1155,3390
3.853658,846,-943,2997
3.853756,748,-1078,2592
3.853853,480,-1071,2336
3.853943,297,-938,2045
3.854035,243,-909,1854
3.854128,110,-941,1572
3.854220,-56,-973,1374
3.854322,-322,-1022,1050
3.854420,-498,-1031,815
3.888930,-758,-1046,439
3.889066,-920,-1071,163
3.889192,-1215,-1123,-293
3.889315,-1397,-1133,-598
3.889445,-1512,-1131,-1075
3.889577,-1620,-1269,-1682
3.889706,-1798,-1178,-1941
3.889834,-1863,-1223,-2235
3.889961,-1917,-1228,-2776
3.890090,-1946,-1193,-3173
3.890218,-1941,-1150,-3590
3.921503,-2049,-1038,-3920
3.921667,-1951,-1113,-4550
3.921798,-1942,-1019,-4393
3.921925,-2057,-1018,-4730
3.922051,-1957,-1027,-4826
3.922177,-1804,-1008,-4757
3.922299,-1675,-970,-4746
3.951589,-1577,-849,-4620
3.951731,-1371,-808,-4590
3.951855,-1390,-540,-4252
3.951974,-1239,-479,-4087
3.952086,-1002,-372,-3905
3.952195,-866,-335,-3715
3.952304,-711,-150,-3424
3.982224,-643,14,-3178
3.982350,-430,24,-2894
3.982459,-352,46,-2649
3.982580,-255,35,-2240
3.982684,-198,43,-1911
3.982784,-91,58,-1490
3.982885,-18,49,-1182
3.982985,-31,-50,-725
3.983092,-13,-154,-432
3.983187,-61,-313,56
3.983287,-61,-419,380
3.983393,987,-772,3326
3.983534,1288,-733,3619
3.983645,1487,-643,3771
4.017858,1765,-523,4126
4.017979,1928,-445,4246
4.018084,2110,-445,4694
4.018188,2214,-439,4844
4.018292,2307,-480,5116
4.018394,2315,-513,5310
4.018521,2334,-674,5515
4.018624,2373,-789,5658
4.018728,2346,-954,5908
4.018838,2294,-1071,6029
4.018962,2204,-1219,6177
4.019064,2185,-1373,6341
4.019166,1916,-1482,6373
4.019267,1836,-1604,6350
4.019369,1809,-1752,6601
4.019471,1849,-1903,6360
4.019636,1592,-1868,6371
4.019740,1608,-2017,6284
4.019844,1561,-2121,6784
4.045532,1820,-2133,6064
4.045651,1499,-1926,6072
4.045754,1359,-1946,5935
4.045856,1302,-1936,5772
4.045957,1306,-1911,5655
4.046058,1297,-1867,5428
4.046160,1368,-1850,5167
4.046262,-254,-1598,4986
4.046363,1156,-1969,5096
4.046465,1401,-1380,4383
4.046594,1300,-1312,4068
4.046692,964,-1259,3602
4.046794,1060,-1122,3291
4.046886,338,-963,2700
4.046984,295,-1116,2586
4.073579,144,-1326,1876
4.073682,0,-1271,1462
4.073788,-131,-1275,1172
4.073886,-523,-1259,723
4.073984,-654,-1278,406
4.074086,-832,-1310,-192
4.074194,-1024,-1329,-701
4.100973,-1168,-1329,-1068
4.101121,-1362,-1252,-1389
4.101251,-1826,-1089,-1742
4.101379,-1453,-1584,-2089
4.101513,-1500,-1632,-2462
4.101641,-1958,-1497,-2461
4.101768,-1845,-1347,-2776
4.101897,-1886,-1320,-2736
4.128254,-1785,-1534,-3471
4.128395,-2341,-1393,-3705
4.128537,-1970,-1388,-3657
4.128660,-1731,-1309,-3884
4.128782,-1667,-1198,-3921
4.128897,-2453,-993,-3130
4.129026,-2002,-1468,-3393
4.129158,-1056,-1177,-3575
4.129281,-1136,-904,-3484
4.157808,-1186,-884,-3319
4.157925,-1089,-924,-3100
4.158023,-1058,-840,-2925
4.158116,-893,-742,-2610
4.158207,-689,-644,-2293
4.158299,-555,-632,-2062
4.158391,-411,-589,-1702
4.158482,-299,-553,-1408
4.158578,-175,-529,-1001
4.158665,-126,-477,-662
4.187817,-56,-447,-105
4.187925,30,-498,299
4.188022,208,-626,866
4.188121,321,-692,1246
4.188220,461,-745,1642
4.188318,597,-750,2219
4.188415,772,-797,2797
4.188522,864,-822,3164
4.188642,1045,-910,3675
4.188755,1180,-1024,3996
4.188859,1308,-981,4414
4.188960,1448,-946,4713
4.217088,1670,-950,5102
4.217203,1779,-982,5315
4.217303,1868,-958,5527
4.217400,1984,-964,5703
4.217504,2159,-946,5872
4.217600,2316,-855,6080
4.217697,2339,-851,6087
4.217794,2375,-856,5972
4.217891,2402,-874,5966
4.217990,2314,-942,6028
4.218083,2297,-971,5926
4.218175,2344,-905,5936
4.218267,2304,-926,5814
4.218363,2078,-1333,5580
4.218460,1985,-1397,5524
4.218580,1723,-1148,5635
4.248128,1666,-1309,5456
4.248256,1603,-1460,5563
4.248367,1592,-1603,5431
4.248475,1377,-1565,5098
4.248592,1316,-1549,4872
4.248697,970,-1552,4837
4.248807,1567,-1691,4823
4.248918,1249,-1394,4243
4.249034,1024,-1356,4030
4.249151,1000,-1279,3686
4.249267,1653,-1455,3587
4.249378,-713,-895,2933
4.249513,936,-1630,3022
4.279796,660,-1189,2554
4.279919,648,-1259,2472
4.280019,321,-1229,2189
4.280116,236,-1218,2071
4.280214,121,-1206,1846
4.280310,133,-1296,1642
4.280415,-166,-1299,1498
4.280542,-269,-1209,1303
4.280645,-176,-1210,1137
4.280743,-294,-1247,974
4.280840,-668,-1363,660
4.280937,-829,-1405,426
4.281030,-870,-1393,58
4.281132,-881,-1431,-200
4.281236,-991,-1472,-585
4.309997,-1338,-1478,-1254
4.310117,-1393,-1441,-1528
4.310223,-1547,-1362,-1886
4.310329,-1629,-1346,-2157
4.310435,-1570,-1335,-2528
4.310565,-1416,-1330,-2741
4.310671,-1168,-1366,-3073
4.310776,-1548,-1398,-3071
4.310880,-1339,-1449,-3370
4.310985,-1570,-1286,-3627
4.339677,-1133,-1441,-2751
4.339798,-1080,-1141,-3926
4.339907,-1651,-1024,-3729
4.340004,-611,-724,-3721
4.340094,93,-956,-3790
4.340196,-1245,-842,-2489
4.340293,-885,-830,-2279
4.340389,-330,-615,-2005
4.340496,-153,-834,-1939
4.340613,-395,-796,-1536
4.340717,-621,-627,-1248
4.340810,-537,-638,-850
4.365209,-125,-815,-173
4.365321,-55,-782,134
4.365416,36,-729,632
4.365519,84,-759,965
4.365619,227,-858,1449
4.365719,321,-950,1747
4.365819,465,-944,2224
4.365919,579,-905,2480
4.395526,802,-1013,2866
4.395641,928,-1067,3075
4.395749,1053,-1027,3460
4.395847,1131,-972,3673
4.395944,1311,-941,3980
4.396048,1423,-936,4195
4.396153,1642,-887,4303
4.396256,1646,-767,4466
4.396359,1598,-832,4780
4.396462,1695,-847,4927
4.396574,1869,-893,5093
4.396676,1870,-900,5202
4.396780,1818,-946,5333
4.396888,1820,-1001,5410
4.396998,1829,-1111,5417
4.409929,1808,-1138,5474
4.410050,1728,-1228,5524
4.410154,1643,-1241,5526
4.410257,1587,-1276,5548
4.435026,1354,-1583,5556
4.435164,1261,-1570,5441
4.435312,1164,-1607,5219
4.435423,1152,-1688,5220
4.435564,1030,-1713,5119
4.435668,988,-1762,4979
4.435773,871,-1738,4867
4.435876,749,-1731,4761
4.435979,635,-1775,4470
4.436077,42,-1860,4284
4.436181,791,-1804,4144
4.463204,564,-1680,3800
4.463337,286,-1665,3474
4.463453,204,-1641,3093
4.463593,167,-1624,2883
4.463709,134,-1617,2659
4.463816,71,-1577,2345
4.463932,-36,-1546,2155
4.464100,-165,-1511,1893
4.464228,-288,-1501,1653
4.492025,-364,-1512,1503
4.492144,-454,-1520,1321
4.492249,-596,-1535,1077
4.492346,-635,-1598,740
4.492443,-722,-1601,569
4.492548,-827,-1599,206
4.492646,-876,-1636,-13
4.492747,-931,-1686,-318
4.492855,-1037,-1632,-554
4.492963,-1086,-1525,-924
4.493068,-1058,-1435,-1205
4.493174,-1187,-1240,-1470
4.516634,-1035,-1374,-1743
4.516752,-970,-1528,-1819
4.516855,-767,-1468,-2000
4.516958,-792,-1264,-2088
4.517064,-1007,-1248,-2283
4.517164,-763,-1131,-2285
4.517264,-675,-1107,-2386
4.517366,-625,-1045,-2394
4.527032,-247,-1060,-2427
4.527160,-219,-851,-2111
4.527271,-250,-743,-1993
4.555500,-173,-750,-1868
4.555615,-39,-821,-1704
4.555711,23,-821,-1543
4.555803,80,-709,-1303
4.555899,121,-658,-1108
4.555992,171,-624,-862
4.556082,233,-630,-639
4.556168,280,-644,-291
4.556249,295,-673,-14
4.556331,347,-765,402
4.556412,379,-836,729
4.556523,412,-956,1215
4.556609,436,-997,1532
4.584562,499,-1046,2007
4.584674,338,-815,2326
4.584778,585,-1253,2805
4.584876,646,-1302,3109
4.584976,721,-1414,3528
4.585076,765,-1439,3760
4.585173,829,-1449,4092
4.585271,974,-1648,4204
4.585370,811,-1351,4517
4.585469,932,-1459,4625
4.585579,1022,-1452,4779
4.585683,1051,-1447,4872
4.616999,1049,-1461,4991
4.617135,1040,-1488,5068
4.617258,1013,-1543,5142
4.617370,994,-1582,5180
4.617482,946,-1662,5227
4.617615,897,-1726,5264
4.617726,806,-1838,5276
4.617889,718,-1880,5278
4.617992,606,-1947,5266
4.618096,558,-2047,5243
4.618199,472,-2082,5072
4.618303,402,-2135,5069
4.618406,299,-2171,4956
4.649562,253,-2207,4857
4.649700,163,-2224,4655
4.649809,46,-2260,4654
4.649916,76,-2301,4183
4.650023,33,-2240,4037
4.650138,-32,-2171,3795
4.650251,-41,-2159,3627
4.650362,-70,-2116,3394
4.650482,-119,-2092,3240
4.650610,-171,-2086,2971
4.650728,-162,-2002,2861
4.650841,-93,-1948,2769
4.678669,-445,-1870,2469
4.678802,275,-1952,2631
4.678916,198,-1645,2457
4.679018,83,-1497,2227
4.679118,48,-1461,2072
4.679217,52,-1366,1894
4.679317,64,-1336,1757
4.679416,97,-1255,1542
4.679546,111,-1240,1380
4.679651,108,-1190,1116
4.707620,130,-1176,905
4.707733,123,-1125,535
4.707830,108,-1094,307
4.707919,91,-1061,-49
4.708009,74,-998,-289
4.708097,43,-954,-629
4.708184,16,-878,-882
4.708275,19,-827,-1204
4.708380,-129,-641,-1192
4.736933,129,-711,-1794
4.737046,1,-622,-1810
4.737154,104,-575,-2001
4.737259,227,-556,-2101
4.767975,188,-477,-2278
4.768105,119,-494,-2381
4.768212,189,-526,-2574
4.768316,114,-329,-2679
4.797836,376,-253,-2884
4.831399,477,-106,-2817
4.890339,537,-81,-2819
4.920014,769,80,-2721
4.920115,894,191,-2652
4.920239,908,279,-2624
4.920326,954,415,-2517
4.920419,1019,481,-2412
4.920518,1020,671,-2236
4.947303,1185,665,-2132
4.947425,1261,709,-1846
4.947538,1298,717,-1686
4.947643,1318,588,-1420
4.947787,1241,697,-1252
4.947886,1167,875,-882
4.947985,1130,640,-617
4.948078,968,450,-193
4.948187,-504,-954,-2451
4.948300,-701,-869,-2834
4.948409,-681,-815,-3394
4.948523,-700,-757,-3374
4.948631,-788,-771,-3586
4.948740,-788,-772,-3765
4.948849,-682,-859,-3878
4.980281,-628,-798,-3983
4.980416,-640,-733,-3985
4.980565,-576,-663,-3948
4.980683,-557,-611,-3969
4.980801,-458,-546,-3856
4.980917,-410,-495,-3824
4.981035,-359,-394,-3694
4.981155,-287,-304,-3635
4.981272,-242,-174,-3479
4.981389,-227,-107,-3316
4.981510,-231,-54,-3042
4.981623,-253,-52,-2802
4.981739,-287,-135,-2391
4.981856,-305,-215,-2077
4.981972,-290,-370,-1644
4.982087,-285,-481,-1336
4.982191,-289,-574,-948
5.009361,-301,-612,-716
5.009475,-350,-599,-441
5.009584,-393,-576,-305
5.009763,-413,-522,-122
5.009857,-441,-495,-24
5.009946,-483,-434,63
5.010039,-493,-386,146
5.010131,-488,-366,282
5.010224,-468,-331,372
5.010317,-475,-240,576
5.010409,-438,-205,711
5.010509,-431,-152,964
5.010607,-435,-135,1143
5.010703,-443,-165,1439
5.010802,-469,-206,1614
5.037360,-410,-325,1905
5.037474,-561,-310,2123
5.037603,-677,-408,2551
5.037701,-633,-586,2790
5.037799,-555,-780,3206
5.037897,-549,-885,3488
5.037993,-539,-935,3893
5.038090,-495,-989,4086
5.038193,-400,-1035,4427
5.038297,-337,-1054,4618
5.068045,-261,-1032,4879
5.068183,-163,-1001,5003
5.097698,-23,-1011,5232
5.097812,51,-999,5403
5.097916,179,-979,5576
5.098018,325,-983,5669
5.098119,477,-914,5811
5.098222,580,-881,5886
5.098323,705,-826,6021
5.128460,748,-842,6159
5.128590,841,-830,6098
5.128694,893,-829,6117
5.128795,950,-835,6161
5.156712,1017,-860,6179
5.156847,1142,-855,6142
5.156965,1169,-818,6182
5.157081,1227,-846,6156
5.157192,1286,-848,6202
5.157323,1292,-849,6188
5.157435,1302,-792,6222
5.188199,1357,-668,6158
5.188333,1448,-648,6133
5.218280,1586,-746,6098
5.218412,1603,-876,6147
5.218539,1429,-941,6108
5.218651,1328,-853,6077
5.218763,1220,-734,5957
5.218873,1275,-598,5846
5.218978,1328,-549,5721
5.219082,1363,-494,5514
5.219188,1410,-572,5426
5.219291,1377,-615,5187
5.219391,261,-314,1315
5.219482,67,-287,966
5.219584,-89,-285,737
5.219683,-290,-313,392
5.219804,-2769,-2249,-1844
5.248000,-3022,-2564,-1754
5.248136,-3116,-2655,-1702
5.248257,-3214,-2805,-1640
5.248378,-3241,-2877,-1636
5.248505,-3292,-2953,-1628
5.248626,-3285,-2978,-1616
5.248748,-3257,-2959,-1636
5.248868,-3205,-2908,-1646
5.248988,-3162,-2787,-1690
5.249109,-3106,-2698,-1687
5.249228,-2969,-2513,-1707
5.279186,-2700,-2187,-1641
5.279333,-2587,-2062,-1578
5.279466,-2443,-1887,-1452
5.279608,-2359,-1796,-1335
5.279737,-2213,-1638,-1146
5.279865,-2108,-1558,-1011
5.279991,-1952,-1432,-756
5.280115,-1856,-1346,-553
5.280238,-1712,-1178,-217
5.280351,-1618,-1066,35
5.280464,-1436,-945,462
5.280584,-1326,-849,767
5.280702,-1103,-739,1191
5.305891,-950,-668,1486
5.305997,-689,-509,1919
5.306092,-469,-376,2204
5.306175,-76,-89,2649
5.306259,225,153,2971
5.306341,987,770,3581
5.306431,1597,1241,4037
5.306533,2056,1474,4337
5.306624,2536,1986,4773
5.306717,2810,2224,5063
5.306808,3347,2519,5441
5.306900,3584,2654,5679
5.306992,3850,2671,6008
5.307085,3939,2659,6184
5.307176,4079,2415,6432
5.307267,4077,2517,6617
5.307357,4104,2606,6753
5.307447,4173,2557,6899
5.317099,4222,2321,7080
5.317222,4193,2235,7103
5.317334,4127,2126,7071
5.317448,4084,2075,7052
5.342467,3967,2038,6978
5.342582,3890,1969,6900
5.342677,3759,1884,6734
5.342770,3642,1856,6620
5.342862,3456,1827,6536
5.342954,3339,1788,6380
5.343046,3142,1698,6170
5.343137,2972,1610,6013
5.343230,2694,1475,5705
5.369285,2476,1398,5424
5.369392,2136,1274,4938
5.369513,1850,1173,4576
5.369602,1367,970,4013
5.369691,1024,781,3673
5.369774,482,466,3113
5.369855,140,211,2800
5.369948,-356,-189,2366
5.370039,-697,-456,2162
5.370136,-1121,-764,1653
5.370275,-1481,-835,1432
5.370377,-1772,-1629,1069
5.370473,-1944,-1846,733
5.370628,-2319,-2023,297
5.398468,-2554,-2141,11
5.398607,-2883,-2383,-402
5.398720,-3057,-2545,-664
5.398836,-3195,-2768,-1047
5.398949,-3395,-2810,-1182
5.399062,-3463,-3039,-1482
5.399168,-3533,-2976,-1752
5.399275,-3632,-3126,-1686
5.399380,-3655,-3205,-1763
5.399491,-3592,-3280,-1774
5.408818,-3566,-3295,-1769
5.408957,-3476,-3337,-1687
5.409086,-3456,-3340,-1686
5.409215,-3331,-3401,-1663
5.436327,-3236,-3312,-1587
5.436454,-3098,-3158,-1505
5.436575,-2973,-3092,-1435
5.436687,-2753,-2961,-1320
5.436800,-2577,-2806,-1247
5.436912,-2296,-2530,-1095
5.437015,-2100,-2303,-983
5.437116,-1836,-1989,-787
5.437216,-1648,-1817,-671
5.467035,-1406,-1591,-421
5.467167,-1256,-1452,-256
5.467274,-1036,-1260,56
5.467380,-839,-1137,272
5.467480,-431,-805,654
5.467582,-95,-498,964
5.467678,498,102,1499
5.467772,916,575,1861
5.467876,1563,1244,2437
5.467982,1949,1615,2840
5.468086,2484,2052,3449
5.468189,2779,2239,3811
5.468293,3130,2376,4246
5.468396,3285,2496,4567
5.497461,3545,2690,5126
5.497590,3741,2469,5320
5.497697,3776,2347,5319
5.497803,3392,2551,5487
5.497909,3538,2406,5473
5.498014,3655,2492,5470
5.498124,3686,2544,5505
5.498238,3692,2585,5521
5.498351,3724,2599,5524
5.498463,3690,2592,5526
5.498584,3666,2563,5553
5.498696,3572,2535,5619
5.530112,3524,2440,5607
5.530254,3403,2357,5606
5.530378,3288,2260,5599
5.530508,2867,1920,5586
5.530627,2691,1788,5551
5.530746,2430,1524,5520
5.530865,2231,1349,5509
5.530985,1929,1121,5416
5.531092,1706,949,5321
5.531199,1394,771,4930
5.531304,1218,704,4690
5.531403,873,509,4213
5.531509,467,403,4160
5.531599,71,18,3119
5.561246,-238,-18,2510
5.561379,-949,-266,1717
5.561511,-1403,-883,1137
5.561631,-1803,-976,458
5.561750,-1889,-1201,-56
5.561874,-2448,-1613,-683
5.562003,-2683,-1857,-1029
5.562133,-2922,-2160,-1668
5.562264,-2959,-2141,-1618
5.562396,-3014,-1837,-1844
5.562531,-3178,-2864,-2776
5.594273,-3240,-2995,-2546
5.594499,-3052,-2840,-2577
5.594899,-3235,-2848,-2610
5.595260,-3224,-3032,-2495
5.595590,-3207,-2843,-2374
5.595725,-3285,-2680,-2246
5.595856,-3174,-2722,-2282
5.595986,-3031,-2445,-2363
5.596116,-2695,-2129,-2165
5.596258,-2345,-2132,-2238
5.596397,-1998,-2397,-1925
5.596544,-1867,-2394,-1682
5.596684,-1851,-2357,-1322
5.630287,-1927,-2259,-1093
5.630445,-2056,-2083,-763
5.630605,-2165,-1937,-488
5.630740,-1423,-1916,-250
5.630869,-1506,-1769,-45
5.630996,-1382,-1592,419
5.631123,-1314,-1645,541
5.631235,-823,-1720,804
5.631347,-644,-1159,844
5.631459,-879,-753,1141
5.631586,-805,-620,1219
5.631698,-497,-423,1343
5.631812,-610,-519,1472
5.631926,-557,-439,1901
5.665790,-566,-807,5194
5.665902,6,510,2628
5.666012,-240,267,2022
5.666110,21,541,2576
5.666210,586,792,2743
5.666322,1006,1112,2934
5.666434,1093,1286,3153
5.666563,1171,1782,3580
5.666686,1384,2063,3865
5.666799,1925,2484,4328
5.666912,2295,2783,4670
5.667024,2662,3102,5084
5.667136,2855,3133,5379
5.667266,2986,3095,5703
5.667378,2968,2956,5855
5.667502,2853,2687,6040
5.698199,2705,2460,6105
5.698329,2495,2089,6116
5.698444,2316,1854,6129
5.698567,2068,1535,6094
5.698680,1926,1355,6040
5.698792,1767,1143,6030
5.698904,1687,1051,6015
5.699011,1605,903,6004
5.699118,1534,842,5924
5.728337,1245,755,5650
5.728460,1005,734,5342
5.728577,877,685,5100
5.728678,643,576,4792
5.728778,474,422,4541
5.728880,204,206,4161
5.768777,3,63,3866
5.768910,-315,-191,3455
5.769023,-486,-369,3202
5.769134,-736,-644,2849
5.769244,-839,-808,2645
5.769364,-898,-1060,2366
5.769482,-953,-1166,2214
5.769627,-1035,-1362,1977
5.769753,-1103,-1472,1865
5.769878,-1189,-1680,1697
5.770000,-1241,-1789,1571
5.770123,-1318,-1955,1444
5.770246,-1390,-1958,1330
5.770368,-1449,-1859,1121
5.799596,-1476,-1825,1028
5.799735,-1477,-1865,787
5.799856,-1485,-1949,707
5.799973,-1159,-2248,299
5.800091,-1277,-1882,505
5.800206,-1737,-1678,650
5.800317,-1776,-1636,387
5.800426,-1698,-1325,394
5.800537,-2775,-725,147
5.800642,-538,-1063,550
5.800749,-535,-1047,597
5.800853,-345,-1026,697
5.800959,-161,-1058,800
5.801071,-119,-904,1005
5.801183,-108,-870,1075
5.801297,-159,-698,1185
5.801411,-197,-553,1241
5.801528,-122,-381,1322
5.816119,6,-276,1403
5.816232,253,-61,1588
5.816323,460,84,1736
5.816417,782,368,1981
5.816526,1022,556,2153
5.816624,1382,862,2391
5.816727,1564,1074,2561
5.816832,1849,1364,2746
5.816936,2000,1550,2835
5.846592,2196,1855,2946
5.846723,2341,2069,2980
5.846837,2583,2359,3073
5.846950,2755,2555,3139
5.847060,2983,2796,3260
5.847164,3121,2936,3365
5.847268,3370,3170,3547
5.847376,3370,3174,3542
5.847480,3281,3359,3697
5.876603,3358,3360,3800
5.876715,3448,3381,3843
5.876814,3370,3437,3889
5.876911,3256,3435,3933
5.877007,3063,3359,4020
5.877104,2923,3297,4066
5.877201,2605,3113,4028
5.877297,2355,2953,3937
5.877393,1912,2663,3736
5.877496,1634,2402,3637
5.877594,1178,1990,3410
5.877688,876,1645,3252
5.877884,387,1188,3024
5.907642,25,897,2807
5.907755,-535,426,2400
5.907851,-905,131,2151
5.907954,-1444,-469,1695
5.908059,-1717,-838,1401
5.908165,-2026,-1265,1053
5.908267,-2178,-1511,806
5.908368,-2445,-1911,476
5.908470,-2628,-2076,287
5.908574,-2791,-2392,-2
5.935384,-2901,-2535,-141
5.935534,-2990,-2660,-359
5.935645,-2984,-2691,-438
5.935753,-2923,-2747,-547
5.935860,-2871,-2772,-614
5.935967,-2832,-2709,-639
5.936073,-2834,-2672,-648
5.936180,-2819,-2648,-610
5.936289,-2832,-2665,-559
5.936398,-2859,-2696,-438
5.936512,-2848,-2730,-309
5.962615,-2768,-2771,-51
5.962729,-2665,-2780,146
5.962828,-2499,-2775,454
5.962925,-2333,-2744,705
5.963025,-2092,-2651,1101
5.963163,-1899,-2541,1340
5.963272,-1322,-2533,1687
5.963379,-1138,-2098,1887
5.963482,-824,-1627,2260
5.991236,-555,-1289,2474
5.991348,-34,-849,2870
5.991443,281,-444,3186
5.991559,845,-30,3636
5.991652,1117,238,3951
5.991746,1479,615,4344
5.991842,2067,1000,4963
5.991939,2059,1227,5173
5.992032,2589,991,5666
5.992132,2699,1419,5916
5.992230,2906,1710,6288
5.992327,2965,1883,6488
5.992424,3018,2103,6742
5.992527,3044,2186,6945
5.992624,3039,2255,7146
5.992720,3010,2309,7351
5.992818,2991,2316,7467
6.019266,3077,2293,7530
6.019381,2949,2400,7557
6.019482,2630,2240,7995
6.019587,2423,2014,8189
6.019685,2248,1889,8049
6.019784,1997,1782,7980
6.019881,1736,1662,8042
6.019978,1251,1352,8089
6.020066,706,949,8011
6.020155,307,677,7856
6.020248,-296,293,7412
6.020338,-671,51,6919
6.020436,-956,-141,6283
6.046829,-1249,-303,5119
6.046954,-1655,-272,3642
6.047058,-1922,-180,2638
6.047152,-2322,50,1135
6.047243,-2553,192,99
6.047346,-2884,264,-1396
6.047448,-3119,212,-2505
6.047556,-3626,176,-3449
6.073885,-3628,-200,-4114
6.074145,-3646,-389,-4930
6.074385,-3671,-550,-5429
6.074636,-3751,-904,-6108
6.099917,-3980,-1378,-6863
6.100036,-4029,-1678,-7047
6.130280,-4215,-2141,-7265
6.130428,-4072,-2248,-7087
6.153586,-4099,-2430,-6892
6.153736,-3529,-2519,-7445
6.153872,-3946,-2066,-6799
6.154000,-3887,-2276,-6472
6.171882,-3899,-2770,-5621
6.202181,-3945,-3070,-5317
6.232674,-4189,-3277,-4376
6.259667,-4353,-2710,-4332
6.259790,-4152,-3174,-4213
6.259898,-3098,-3661,-3793
6.260003,-2665,-3869,-2469
6.260095,1934,-312,9297
6.260188,1824,-527,9070
6.288292,1411,-294,8834
6.288414,1148,-343,8687
6.288525,846,-748,8686
6.288626,804,-887,8149
6.288731,653,-1102,7834
6.288835,394,-1120,7547
6.288933,32,-1014,6787
6.289036,-126,-920,6044
6.319251,-672,-629,3875
6.319358,-954,-467,2568
6.319456,-1112,-405,1692
6.319556,-1320,-348,570
6.319654,-1431,-383,-153
6.347704,-1601,-365,-968
6.347829,-1671,-367,-1514
6.347938,-1741,-671,-2282
6.348048,-1863,-917,-2584
6.348142,1599,-47,6982
6.348241,1461,-258,6984
6.348339,1145,-294,7108
6.348436,1158,-476,7208
6.348540,1123,-616,7095
6.348631,915,-643,6740
6.348724,713,-679,6475
6.348816,463,-638,5699
6.348907,312,-566,5144
6.348999,76,-612,4360
6.349103,-558,-777,4013
6.349202,-699,-46,2447
6.349306,-1063,129,1855
6.349411,-1028,-455,646
6.349519,-1272,-326,-12
6.349627,-1512,-165,-864
6.349741,-1571,-339,-1261
6.349854,-1667,-642,-1733
6.374148,-1777,-780,-1911
6.374278,-1990,-1158,-2219
6.374393,-2124,-1433,-2365
6.374520,-2397,-1732,-2538
6.374634,-2545,-1930,-2597
6.374746,-2815,-2001,-2683
6.374859,-2949,-2034,-2755
6.374970,-3146,-2170,-2625
6.375081,-3049,-2119,-3334
6.375192,-3077,-2285,-2670
6.403141,-2364,-2619,-1682
6.403268,-2913,-2006,-1951
6.403381,-1987,-2001,-1920
6.403501,-1816,-1707,-1549
6.403614,-1675,-1102,-1271
6.403723,-1535,-693,-1315
6.403832,-1178,-301,-1340
6.403939,-1007,-116,-1125
6.404034,-835,194,-494
6.404120,-796,282,37
6.404209,-474,196,980
6.404302,-306,175,1673
6.404377,-8,9,2685
6.404468,17,-164,3321
6.418317,71,-208,4297
6.418437,307,-360,4647
6.418549,214,-444,5325
6.418652,-34,-275,5668
6.418753,168,-663,6154
6.441095,276,-665,6394
6.441259,328,-620,6691
6.441401,337,-538,6836
6.441542,308,-511,6976
6.441640,308,-488,7049
6.441732,282,-471,7130
6.441825,285,-450,7167
6.441917,288,-430,7240
6.442008,307,-438,7284
6.442100,307,-483,7355
6.471957,294,-557,7380
6.472072,245,-656,7405
6.472168,194,-749,7428
6.472262,160,-915,7331
6.472355,123,-996,7143
6.472443,22,-972,6677
6.472566,-160,-730,6222
6.503010,-291,-582,5335
6.503125,-417,-495,4558
6.503211,-667,5,3340
6.503300,-645,95,2422
6.503393,-742,353,1136
6.503481,-896,488,325
6.503600,-1106,479,-431
6.535150,-1257,509,-770
6.535287,-1434,274,-1614
6.535405,-1417,132,-2074
6.535527,-1494,-79,-2309
6.535650,-1579,-346,-2351
6.535771,-1701,-686,-2333
6.535886,-1756,-982,-2293
6.536066,-1886,-1358,-2196
6.536185,-1985,-1528,-2078
6.536304,-2131,-1742,-1915
6.536423,-2147,-1846,-1837
6.536547,-2163,-1881,-1598
6.536666,-2127,-1858,-1321
6.536780,-2005,-1958,-798
6.536899,-1658,-1733,-1687
6.537013,-2146,-1583,-177
6.565747,-1753,-1228,-906
6.565872,-1173,-1168,-523
6.565976,-819,-1340,-265
6.566074,-864,-1523,588
6.566176,-944,-1657,1011
6.566278,-873,-1582,1430
6.566382,-778,-1287,1901
6.566480,-494,-862,2415
6.566595,-162,-583,2753
6.566688,1110,471,4544
6.566780,1549,402,5528
6.566872,2011,197,5682
6.566965,2034,453,6083
6.567064,2031,338,6370
6.567166,1687,446,6413
6.567264,1509,508,6443
6.567362,1486,384,6365
6.567460,1313,409,6354
6.567561,1190,89,6404
6.599746,1048,-15,6434
6.599871,782,-145,6412
6.599980,622,-258,6308
6.600085,428,-441,5965
6.600189,321,-525,5621
6.600283,10,-463,4894
6.600389,-239,-348,4322
6.600497,-543,-80,3277
6.600591,-664,62,2606
6.600691,-766,244,1479
6.600784,-814,372,716
6.628409,-935,529,-384
6.628558,-1211,712,-1075
6.628681,-1228,425,-1974
6.628801,-1390,353,-2423
6.628946,-1702,156,-2970
6.629072,-1877,-77,-3106
6.629203,-2022,-464,-3148
6.629337,-2198,-728,-3121
6.629478,-2357,-1211,-2955
6.629642,-2407,-1436,-2790
6.629781,-2495,-1707,-2498
6.629919,-2560,-1857,-2255
6.630053,-2620,-2031,-1792
6.630181,-2540,-2194,-1441
6.630304,-2340,-2404,-896
6.630428,-2176,-2485,-554
6.657810,-1972,-2515,-180
6.657945,-1842,-2438,35
6.658059,-1680,-2224,220
6.658168,-1607,-2039,347
6.658277,-1507,-1772,527
6.658386,-1395,-1628,731
6.658506,-1117,-1457,1125
6.658615,-810,-1336,1457
6.658722,-246,-1091,2128
6.658821,226,-914,2487
6.658921,525,-320,3162
6.687761,1117,132,4143
6.687874,1281,223,4504
6.687975,1465,267,4977
6.688070,1502,291,5269
6.688162,1484,252,5638
6.688254,1461,161,5841
6.688343,1400,-3,6120
6.688442,1251,-117,6337
6.688546,1102,-162,6397
6.688639,943,-185,6396
6.688732,693,-187,6228
6.688823,520,-188,6051
6.714991,280,-204,5730
6.715096,77,-284,5427
6.715191,-52,-337,5218
6.715289,-223,-472,5091
6.715386,-291,-585,5068
6.715505,-379,-760,5126
6.715603,-433,-892,5194
6.715700,-513,-979,5252
6.715799,-639,-989,5138
6.715895,-778,-724,4477
6.715993,-983,-387,3741
6.716090,-1258,166,2171
6.744833,-1395,403,1008
6.744948,-1470,532,-524
6.745055,-1468,557,-1325
6.745164,-1562,588,-2228
6.745272,-1689,530,-2635
6.745377,-1911,18,-2971
6.745502,-1963,-205,-2918
6.745616,-2092,-630,-2755
6.745729,-2176,-896,-2543
6.745849,-2270,-1408,-2101
6.745975,-1979,-1832,-1979
6.775011,-2111,-1738,-1849
6.775132,-2202,-1816,-1769
6.775241,-2272,-1928,-1564
6.775349,-2174,-2037,-1415
6.775456,-2067,-2174,-1133
6.775585,-2013,-2188,-908
6.775687,-1846,-2183,-621
6.775789,-1719,-2132,-493
6.775889,-1535,-1989,-416
6.775989,-1459,-1824,-396
6.776090,-1324,-1482,-485
6.805739,-1217,-1196,-557
6.805858,-1053,-717,-568
6.805959,-864,-426,-445
6.806049,-423,-84,-67
6.806134,-140,90,305
6.806223,246,242,1053
6.806307,692,86,1668
6.806395,952,164,2732
6.806479,1108,9,3453
6.806599,1335,-283,4422
6.836238,1444,-368,5000
6.836347,1486,-444,5644
6.836439,1439,-528,5944
6.836561,1441,-644,6258
6.836652,1391,-650,6314
6.836743,1238,-621,6283
6.836833,1182,-648,6270
6.836925,1034,-627,6247
6.837012,886,-592,6225
6.837099,580,-525,6022
6.837185,343,-476,5864
6.837267,52,-371,5502
6.837358,-103,-330,5256
6.837451,-245,-291,4858
6.837607,-320,-293,4679
6.837699,-398,-296,4498
6.865845,-437,-338,4448
6.865969,-459,-455,4489
6.866062,-484,-534,4522
6.866157,-579,-582,4545
6.866255,-660,-570,4470
6.866353,-632,-550,4216
6.866450,-593,-506,3913
6.866558,-642,-268,3217
6.897961,-771,1,2560
6.898093,-1052,351,1405
6.898202,-1215,474,694
6.898314,-1377,436,-281
6.898424,-1430,283,-723
6.898546,-1491,-65,-1034
6.898671,-1547,-331,-1065
6.898787,-1647,-696,-892
6.898903,-1680,-885,-710
6.899024,-1701,-1133,-440
6.899138,-1762,-1276,-306
6.899251,-1861,-1421,-165
6.899359,-1923,-1532,-49
6.899470,-1974,-1715,107
6.899599,-1986,-1858,222
6.930989,-1951,-2023,392
6.931115,-1893,-2123,469
6.931226,-1794,-2222,541
6.931335,-1723,-2213,555
6.931443,-1600,-2102,530
6.931623,-1535,-2019,456
6.931734,-1465,-1841,313
6.931843,-1424,-1734,208
6.931946,-1355,-1549,26
6.932057,-1247,-1394,-10
6.932164,-854,-1179,126
6.932264,-518,-957,289
6.932353,19,-575,565
6.932447,341,-320,811
6.958734,755,53,1291
6.958834,982,219,1699
6.958926,1321,251,2383
6.959039,1508,183,2838
6.959160,1711,8,3517
6.959248,1761,-119,3898
6.959334,1708,-248,4315
6.959420,1568,-312,4474
6.959524,1333,-517,4559
6.959609,1186,-675,4558
6.959691,944,-788,4521
6.987906,786,-869,4474
6.988023,577,-895,4385
6.988126,421,-877,4285
6.988226,174,-817,4031
6.988321,27,-772,3830
6.988425,-177,-743,3489
6.988536,-286,-738,3232
6.988640,-407,-716,2937
6.988744,-462,-698,2784
6.988846,-482,-629,2625
6.988949,-476,-583,2582
7.017817,-407,-514,2492
7.017932,-330,-469,2422
7.018029,-197,-331,2237
7.018127,-102,-204,2072
7.018215,-24,-32,1845
7.018298,-20,47,1609
7.018390,-146,176,1251
7.018484,-242,219,1028
7.018577,-383,227,629
7.018664,-502,184,419
7.018747,-654,70,177
7.018833,-739,-51,112
7.018921,-833,-245,59
7.049864,-906,-363,91
7.049980,-1050,-527,188
7.050082,-1123,-644,320
7.050182,-1215,-883,605
7.050335,-1280,-1082,808
7.050442,-1345,-1373,1178
7.050564,-1353,-1562,1435
7.050672,-1338,-1762,1794
7.050778,-1280,-1840,1996
7.050884,-1164,-1834,2178
7.050991,-1098,-1763,2222
7.051091,-971,-1574,2171
7.084297,-658,-1182,2013
7.084430,-464,-1009,1947
7.084551,-148,-690,1924
7.084659,152,-436,1904
7.084759,695,-35,2035
7.084865,1055,217,2164
7.084972,1503,623,2376
7.085079,1657,853,2517
7.085189,1859,1029,2682
7.085301,1936,1082,2747
7.085412,1844,1044,2742
7.085525,1661,996,2741
7.085630,1225,793,2821
7.113256,875,541,2898
7.113370,359,-6,3129
7.113474,51,-439,3272
7.113600,-241,-1216,3493
7.113716,-375,-1666,3590
7.113833,-610,-2110,3646
7.113949,-758,-2272,3613
7.114065,-967,-2331,3488
7.114187,-1089,-2301,3359
7.114310,-1198,-2176,3108
7.114432,-1274,-2054,2930
7.142722,-1310,-1862,2663
7.142854,-1313,-1736,2496
7.142971,-1238,-1525,2344
7.143085,-1055,-1430,2220
7.143195,-763,-1246,2083
7.143303,-606,-1102,2014
7.143406,-413,-869,1978
7.143524,-273,-734,1975
7.172714,-69,-501,1930
7.172845,-51,-428,1864
7.172992,-58,-369,1841
7.173095,-60,-300,1726
7.173195,-59,-288,1623
7.173293,-54,-279,1377
7.173391,-97,-248,1205
7.173520,-199,-284,885
7.204600,-259,-329,685
7.204729,-385,-421,364
7.204840,-474,-497,146
7.204950,-583,-596,-166
7.205061,-702,-634,-383
7.205172,-908,-698,-653
7.205290,-1019,-729,-857
7.205413,-1167,-835,-1128
7.205557,-1264,-892,-1279
7.205682,-1430,-998,-1427
7.205810,-1521,-1079,-1481
7.205939,-1680,-1242,-1514
7.206069,-1745,-1346,-1487
7.206198,-1876,-1552,-1379
7.206329,-1956,-1702,-1263
7.206458,-2076,-1916,-1046
7.206588,-2113,-2001,-888
7.206712,-2151,-2122,-720
7.237369,-2151,-2150,-563
7.237531,-2131,-2157,-350
7.237656,-2114,-2117,-200
7.237767,-2056,-2049,37
7.237887,-2010,-1975,201
7.238005,-1900,-1866,440
7.238121,-1790,-1784,596
7.238237,-1594,-1629,917
7.238359,-1321,-1558,1212
7.238482,-1115,-1334,1741
7.238623,-997,-1255,2219
7.238741,-547,-1358,2915
7.238858,-359,-1071,3364
7.238970,-547,-550,4120
7.239072,28,-996,4749
7.239179,394,-876,5238
7.239285,575,-859,5620
7.268062,733,-743,6103
7.268172,830,-713,6354
7.268267,946,-708,6623
7.268365,1002,-724,6705
7.268464,1044,-751,6807
7.268568,1046,-762,6821
7.268665,1011,-800,6776
7.268758,931,-840,6704
7.268850,800,-868,6540
7.296495,709,-874,6405
7.296621,551,-930,6127
7.296732,450,-947,5910
7.296838,318,-957,5569
7.296943,255,-939,5315
7.297047,232,-928,4961
7.297152,268,-925,4770
7.297257,334,-911,4443
7.297362,416,-902,4220
7.297467,550,-866,3850
7.297595,642,-801,3545
7.324905,750,-672,3034
7.325008,805,-573,2685
7.325098,861,-489,2154
7.325186,862,-382,1853
7.325274,858,-294,1419
7.325360,850,-287,1210
7.325443,839,-298,905
7.325535,822,-336,716
7.325618,786,-427,496
7.325700,749,-504,341
7.325782,685,-573,169
7.325860,669,-632,19
7.325948,633,-676,-206
7.326036,582,-701,-365
7.354142,503,-723,-609
7.354262,452,-738,-801
7.354370,384,-748,-1048
7.354475,349,-749,-1193
7.354605,272,-731,-1388
7.385791,229,-698,-1531
7.385922,137,-681,-1634
7.386031,56,-686,-1725
7.386138,-1,-626,-1758
7.386249,-29,-508,-1746
7.386366,-200,-479,-1856
7.386482,-334,-749,-1849
7.386606,-360,-749,-1511
7.386723,-539,-611,-1590
7.386840,-728,-457,-1510
7.386957,-822,-434,-1390
7.387072,-935,-454,-1231
7.387194,-1020,-507,-1086
7.387310,-1107,-570,-873
7.387426,-1149,-577,-703
7.387546,-1194,-624,-414
7.414726,-1225,-639,-234
7.414839,-1285,-638,90
7.414939,-1323,-655,315
7.415036,-1390,-698,688
7.445079,-1423,-730,980
7.445218,-1478,-765,1437
7.445338,-1542,-812,1764
7.493038,-1803,-1226,3027
7.493171,-1855,-1338,3323
7.493291,-1929,-1527,3722
7.493406,-1932,-1598,3922
7.493546,-1907,-1749,4243
7.506935,-1817,-1940,4513
7.507112,-1797,-1960,4544
7.507258,-1695,-1936,4642
7.507402,-1635,-1901,4628
7.507565,-1512,-1803,4592
7.507701,-229,-1276,3510
7.507838,-237,-1287,3566
7.507972,-213,-1265,3642
7.508097,-172,-1244,3666
7.540935,-123,-1242,3684
7.541208,-88,-1242,3668
7.541461,-39,-1212,3624
7.541711,12,-1193,3565
7.572566,58,-1174,3459
7.572688,79,-1135,3373
7.572797,112,-1094,3258
7.601658,136,-1042,3162
7.601773,183,-1017,3030
7.628989,229,-1013,2921
7.629150,295,-976,2792
7.629252,344,-961,2708
7.629360,467,-1045,2605
7.629463,666,-1247,2467
7.629573,515,-943,2308
7.629677,551,-1009,2214
7.629783,680,-1132,2036
7.659068,757,-1173,1904
7.689786,848,-1066,1633
7.689896,908,-937,1428
7.689993,994,-748,1033
7.690087,1035,-617,782
7.690180,1109,-447,426
7.690300,773,182,157
7.690379,640,59,521
7.690462,553,-16,727
7.690580,412,-165,1081
7.690673,312,-274,1296
7.690766,192,-416,1631
7.690857,122,-518,1872
7.690948,106,-639,2160
7.691038,84,-716,2347
7.691126,82,-783,2601
7.691213,63,-810,2740
7.691301,99,-829,2914
7.719254,98,-821,3008
7.719359,95,-791,3090
7.719449,89,-759,3125
7.719560,99,-706,3148
7.719652,125,-697,3175
7.719746,162,-666,3199
7.719840,180,-642,3222
7.719932,184,-631,3230
7.765730,165,-547,3240
7.765843,174,-490,3262
7.765941,178,-505,3335
7.766043,160,-547,3340
7.766147,115,-594,3357
7.766246,61,-650,3350
7.766352,-51,-672,3363
7.766465,-192,-964,3203
7.766599,-146,-999,3124
7.766704,-34,-921,3005
7.766815,-171,-956,3305
7.778472,-90,-910,3214
7.778620,-52,-932,3186
7.804897,-44,-932,3185
7.805007,-51,-930,3188
7.805103,-49,-952,3189
7.805231,-61,-954,3183
7.835245,-87,-932,3227
7.835370,-79,-972,3282
7.835494,-70,-1019,3286
7.835606,-67,-1028,3322
7.835718,-78,-1099,3230
7.835828,-71,-1214,3208
7.835939,-48,-1146,3265
7.836040,-5,-932,3199
7.836152,-263,-859,2466
7.836263,-236,-583,2654
7.836376,-115,-192,2687
7.836491,186,-227,2730
7.836599,380,-602,2690
7.836700,24,-605,2411
7.836800,15,-612,2441
7.836895,7,-613,2448
7.836995,18,-619,2459
7.837095,59,-623,2477
7.874691,137,-614,2472
7.874802,203,-591,2470
7.874898,274,-558,2456
7.874992,309,-511,2474
7.875084,354,-471,2460
7.875177,372,-438,2438
7.875270,404,-392,2397
7.875362,451,-383,2356
7.875456,478,-369,2337
7.904294,517,-343,2279
7.904400,523,-345,2255
7.904521,536,-315,2220
7.904613,536,-279,2197
7.904705,540,-284,2137
7.904795,520,-310,2084
7.904951,505,-312,2019
7.905045,475,-330,1963
7.905137,429,-328,1904
7.905281,391,-319,1862
7.905376,325,-314,1803
7.905468,265,-308,1756
7.905567,190,-336,1653
7.905662,112,-393,1542
7.905750,37,-399,1492
7.905843,-91,-375,1495
7.905942,-152,-565,1479
7.906041,-112,-603,1487
7.938360,-90,-589,1489
7.938682,-297,-445,1462
7.938815,-307,-548,1536
7.938910,127,-516,1579
7.939000,84,-551,1564
7.939094,104,-611,1644
7.939186,128,-660,1678
7.939279,135,-597,1724
7.939373,111,-457,1743
7.939465,148,-468,1863
7.939569,218,-654,1850
7.939662,305,-765,1970
7.939755,450,-604,1936
7.939848,456,-375,1838
7.939942,455,-223,1810
7.966425,346,-148,1797
7.966542,266,-107,1697
7.966628,273,71,1532
7.966717,300,117,1633
7.966805,772,205,1893
7.966897,1405,576,2065
7.966989,2080,744,1950
7.967081,2046,792,2000
7.967174,1473,451,2048
7.967278,-461,-1616,2118
7.967375,-369,-607,2150
7.967476,-156,-1063,1752
7.967575,146,-899,1853
7.994197,289,-717,2119
7.994308,319,-524,2223
7.994404,436,-447,2322
7.994524,581,-451,2378
7.994618,683,-525,2402
8.024373,692,-607,2410
8.024514,650,-613,2381
8.024617,563,-504,2258
8.024717,478,-445,2155
8.024817,518,-244,2143
8.024916,501,-153,2072
8.025015,476,-152,1935
8.025115,285,-182,1821
8.025215,270,-355,1779
8.025313,321,-391,1754
8.025411,350,-337,1782
8.025515,348,-306,1737
8.025614,273,-386,1601
8.053664,258,-396,1587
8.053775,164,-431,1564
8.053869,166,-480,1534
8.053962,207,-460,1583
8.054054,266,-441,1608
8.054149,264,-416,1671
8.054242,251,-437,1679
8.054333,191,-497,1692
8.054428,188,-529,1726
8.054528,207,-539,1794
8.054622,218,-552,1805
8.054715,276,-539,1854
8.084194,311,-544,1902
8.084320,281,-554,1905
8.084428,244,-567,1900
8.084567,211,-551,1823
8.084673,224,-595,1799
8.084780,198,-619,1801
8.084886,-42,-673,2292
8.084992,-23,-330,3035
8.085096,322,-273,2740
8.085195,740,-619,1783
8.085294,838,-782,1530
8.085393,562,-781,1733
8.115633,338,-677,1980
8.115745,119,-673,2214
8.115840,128,-593,2200
8.115933,214,-471,2105
8.116026,276,-417,2051
8.116120,269,-352,2059
8.116218,126,-389,2538
8.116317,216,-488,3206
8.116416,382,-429,3197
8.116519,606,-470,2287
8.116619,546,-462,1841
8.116718,427,-589,1832
8.116816,133,-639,1839
8.116915,-57,-690,2002
8.117014,-78,-783,1985
8.144478,-17,-806,2006
8.144600,-13,-786,1992
8.144696,55,-803,1826
8.144791,65,-800,1683
8.144889,294,-774,1752
8.144995,169,-734,1867
8.145100,196,-670,1804
8.145207,249,-617,1845
8.145312,168,-724,1927
8.145417,268,-929,1871
8.145528,497,-904,1906
8.176781,457,-973,1971
8.176893,77,-1814,1734
8.176989,53,-1524,1743
8.177081,649,-327,2188
8.177174,948,-365,2263
8.177267,793,-425,2103
8.177359,677,-380,2154
8.177450,399,-332,2275
8.177550,430,-371,1588
8.177644,194,-390,2525
8.177736,463,-439,2261
8.177829,443,-195,2472
8.177922,451,-266,2446
8.178015,600,-272,2162
8.208921,914,-305,2518
8.209043,933,-382,2379
8.209150,1153,-276,2407
8.209254,1029,-364,2350
8.209358,1211,-273,2347
8.237461,1009,-283,2210
8.237590,935,-338,2302
8.237692,886,-454,2342
8.237792,854,-519,2371
8.237891,763,-568,2389
8.237992,724,-570,2371
8.238091,689,-580,2315
8.238190,695,-574,2190
8.238288,408,-658,2000
8.266769,351,-717,2072
8.266895,443,-704,2070
8.267005,517,-674,1976
8.267112,531,-676,1901
8.267217,557,-694,1899
8.267322,634,-774,1839
8.267427,677,-777,1788
8.267541,723,-781,1733
8.267647,713,-782,1727
8.267751,768,-807,1764
8.267856,824,-838,1777
8.267962,874,-850,1812
8.296716,1043,-852,1857
8.296846,1457,-882,1647
8.296960,1225,-795,1787
8.297072,1383,-797,2005
8.297183,1153,-982,1753
8.297291,487,-865,1880
8.297397,351,-791,2409
8.297512,528,-845,2187
8.297618,539,-825,2101
8.297724,705,-695,2074
8.297829,776,-754,2083
8.297935,757,-848,2043
8.298041,784,-875,2046
8.298148,918,-805,1998
8.298247,750,-659,1989
8.298345,865,-758,2037
8.298449,1070,-861,1998
8.327361,1077,-883,1943
8.327462,1051,-874,1931
8.327564,1070,-816,1937
8.327651,1090,-801,1921
8.327737,1059,-755,1942
8.327823,1015,-725,1991
8.327906,995,-712,2004
8.327995,1010,-662,2006
8.328081,1029,-663,2066
8.328167,1060,-642,2088
8.328253,1066,-611,2091
8.328341,1051,-576,2102
8.328427,1031,-559,2153
8.328521,1020,-539,2151
8.357558,1014,-529,2187
8.357668,1013,-514,2209
8.357761,1000,-491,2256
8.357850,983,-482,2298
8.357939,980,-498,2305
8.358025,965,-523,2328
8.358111,970,-576,2355
8.358200,987,-609,2380
8.358287,997,-696,2433
8.358374,984,-773,2458
8.358460,993,-854,2497
8.358571,997,-908,2515
8.388341,1074,-968,2578
8.388597,1111,-997,2624
8.388830,1168,-993,2666
8.389058,1201,-993,2706
8.389278,1193,-961,2737
8.389542,1192,-938,2766
8.389791,1163,-882,2824
8.390053,1137,-834,2830
8.390329,1079,-744,2862
8.390565,1031,-704,2872
8.390767,975,-637,2882
8.391046,940,-583,2890
8.391252,903,-521,2856
8.391483,906,-485,2840
8.419504,882,-430,2796
8.419615,855,-405,2753
8.419730,844,-379,2716
8.419823,850,-359,2686
8.419915,856,-352,2620
8.420008,864,-348,2579
8.420099,886,-362,2496
8.420187,917,-398,2454
8.420307,955,-464,2353
8.420394,982,-499,2275
8.420490,1035,-586,2199
8.420583,1076,-635,2125
8.420675,1136,-713,2063
8.420766,1177,-757,2024
8.446372,1232,-791,1987
8.446543,1273,-807,1952
8.446650,1301,-806,1928
8.446755,1325,-806,1908
8.446858,1361,-780,1888
8.446956,1359,-766,1877
8.447053,1377,-730,1873
8.447148,1357,-700,1858
8.447247,1340,-634,1851
8.447344,1345,-629,1853
8.477097,1318,-590,1846
8.477203,1304,-560,1839
8.477296,1268,-526,1826
8.477392,1263,-505,1814
8.477493,1233,-501,1791
8.477589,1232,-494,1775
8.477681,1219,-478,1757
8.477773,1210,-478,1757
8.477865,1194,-453,1737
8.477956,1185,-459,1710
8.478047,1229,-482,1690
8.478138,1232,-492,1656
8.478233,1190,-487,1645
8.478332,1172,-488,1645
8.505699,1155,-516,1633
8.505865,1187,-524,1587
8.506015,1301,-585,1531
8.506340,1370,-628,1484
8.506559,1454,-687,1470
8.506745,1460,-706,1428
8.506924,1504,-771,1393
8.507103,1426,-702,1394
8.507283,1349,-661,1265
8.507462,1306,-661,1228
8.507837,1288,-648,1179
8.536375,1292,-624,1136
8.536596,1301,-609,1036
8.536739,1292,-591,962
8.536837,1289,-574,870
8.536932,1288,-542,848
8.537025,1285,-504,777
8.537118,1270,-501,732
8.537211,1237,-481,654
8.537304,1236,-484,618
8.537396,1232,-493,546
8.537500,1252,-474,492
8.537595,1264,-487,471
8.564613,1276,-501,459
8.564731,1289,-517,445
8.564837,1303,-531,462
8.564933,1309,-545,464
8.565026,1320,-585,456
8.565120,1334,-622,489
8.565212,1340,-640,485
8.565306,1360,-685,493
8.575226,1377,-737,507
8.575349,1380,-737,490
8.575457,1376,-754,491
8.604078,1380,-757,502
8.604188,1364,-763,483
8.604283,1370,-742,491
8.604377,1385,-741,494
8.604470,1369,-739,487
8.604582,1386,-726,492
8.604674,1381,-719,472
8.604767,1345,-719,488
8.604860,1345,-716,447
8.604953,1342,-717,445
8.605046,1312,-726,430
8.605138,1315,-725,447
8.605228,1318,-714,439
8.605315,1308,-714,443
8.605402,1317,-731,465
8.605494,1332,-737,457
8.631861,1338,-763,443
8.631981,1349,-750,447
8.632085,1345,-772,454
8.632187,1358,-791,464
8.632287,1356,-801,452
8.632387,1377,-817,419
8.632500,1371,-835,409
8.632610,1377,-851,414
8.632708,1397,-862,406
8.632807,1407,-840,387
8.663609,1420,-842,374
8.663721,1436,-838,361
8.663818,1433,-839,357
8.663910,1438,-819,330
8.664002,1422,-816,306
8.664097,1411,-798,303
8.664190,1404,-789,297
8.664283,1371,-781,279
8.664379,1352,-767,291
8.664472,1327,-765,268
8.664585,1320,-780,280
8.664676,1310,-796,312
8.664769,1314,-796,307
8.692270,1302,-827,327
8.692381,1325,-865,348
8.692477,1307,-884,383
8.692593,1316,-906,384
8.692686,1341,-933,416
8.725753,1332,-946,429
8.725871,1354,-987,446
8.725973,1375,-989,446
8.726079,1395,-1008,458
8.726185,1393,-1041,473
8.726289,1404,-1056,469
8.726392,1405,-1070,475
8.726504,1406,-1086,526
8.726610,1403,-1091,531
8.726714,1400,-1114,547
8.726819,1410,-1107,589
8.726924,1416,-1142,618
8.727030,1430,-1138,637
8.727134,1424,-1157,696
8.727238,1441,-1164,723
8.727342,1441,-1187,773
8.727539,1449,-1185,784
8.756391,1445,-1195,843
8.756526,1444,-1222,864
8.756630,1440,-1220,880
8.756731,1457,-1226,917
8.756829,1470,-1220,922
8.756927,1481,-1228,950
8.800239,1496,-1237,1004
8.804762,1513,-1231,1014
8.843860,1506,-1217,1033
8.843971,1530,-1248,1080
8.844068,1487,-1224,1084
8.844164,1529,-1199,1128
8.844261,1568,-1230,1091
8.844357,1561,-1237,1127
8.844452,1516,-1200,1148
8.844555,1446,-1174,1221
8.873531,1438,-1210,1272
8.873642,1456,-1205,1306
8.873739,1541,-1209,1313
8.873835,1552,-1192,1313
8.873932,1531,-1160,1293
8.900624,1475,-1200,1359
8.900753,1460,-1192,1368
8.900866,1427,-1150,1392
8.900975,1404,-1127,1411
8.901079,1393,-1118,1425
8.901182,1391,-1163,1421
8.931328,1442,-1173,1458
8.931475,1460,-1177,1456
8.931630,1462,-1141,1366
8.931758,1462,-1152,1466
8.962877,1413,-1157,1470
8.963022,1386,-1160,1472
8.963151,1351,-1155,1506
8.963279,1362,-1188,1546
8.963406,1397,-1230,1587
8.994252,1424,-1256,1617
8.994389,1474,-1278,1606
8.994525,1511,-1282,1617
8.994644,1513,-1293,1591
8.994761,1521,-1269,1566
8.994878,1478,-1257,1565
8.994996,1438,-1240,1544
8.995123,1391,-1440,1579
8.995248,1389,-1403,1583
8.995377,1357,-1362,1564
8.995525,1313,-1343,1566
8.995653,1271,-1320,1559
8.995781,1214,-1290,1554
8.995909,1129,-1242,1567
9.025666,1102,-1242,1578
9.025805,1084,-1233,1624
9.056875,1093,-1251,1668
9.057011,1083,-1267,1704
9.057130,1070,-1289,1769
9.057248,1064,-1286,1796
9.057367,1047,-1273,1833
9.057484,1057,-1259,1864
9.057627,1057,-1245,1900
9.057745,1048,-1225,1952
9.057865,1044,-1218,1996
9.057984,1046,-1201,2007
9.088749,1039,-1179,2060
9.088884,1063,-1170,2081
9.089004,1078,-1154,2102
9.089122,1106,-1143,2123
9.089241,1120,-1144,2137
9.089357,1129,-1161,2171
9.089473,1156,-1160,2198
9.089603,1131,-1176,2270
9.089719,1124,-1168,2250
9.089837,1121,-1165,2237
9.089954,1114,-1156,2221
9.090071,1096,-1147,2187
9.090189,1066,-1140,2185
9.090307,1063,-1134,2143
9.120848,1053,-1118,2120
9.120984,1033,-1112,2095
9.121104,1012,-1102,2052
9.121221,1019,-1093,2010
9.121339,1006,-1068,2008
9.121455,1005,-1065,2006
9.121618,1003,-1052,1944
9.121736,1003,-1042,1934
9.121849,991,-1037,1906
9.121967,1002,-1028,1889
9.122080,1015,-1012,1887
9.122190,1027,-1016,1874
9.153263,1023,-1005,1858
9.153403,1036,-1006,1826
9.153563,1039,-1021,1790
9.153685,1041,-1012,1777
9.153802,1049,-1016,1725
9.153919,1061,-1007,1708
9.154036,1084,-1036,1698
9.154152,1080,-1026,1664
9.154268,1116,-1082,1680
9.154385,1090,-1086,1625
9.154522,1083,-1054,1439
9.154639,1112,-1040,1663
9.154758,1065,-1057,1586
9.154876,1060,-1050,1585
9.154993,1039,-1047,1600
9.155110,1048,-1045,1600
9.155228,1053,-1051,1593
9.155344,1056,-1051,1591
9.155463,1050,-1069,1591
9.185367,1062,-1074,1600
9.185520,1084,-1095,1618
9.185646,1093,-1114,1600
9.185764,1111,-1128,1619
9.185884,1124,-1141,1610
9.186003,1125,-1150,1604
9.186124,1138,-1158,1613
9.186244,1143,-1144,1598
9.186360,1169,-1155,1598
9.186479,1177,-1165,1573
9.216819,1184,-1142,1555
9.216968,1181,-1122,1531
9.217097,1182,-1124,1521
9.217224,1168,-1097,1498
9.217351,1165,-1069,1462
9.217477,1146,-1070,1429
9.217625,1125,-1049,1405
9.217753,1127,-1034,1386
9.217879,1142,-1038,1382
9.218006,1148,-1022,1344
9.218129,1149,-1038,1339
9.218246,1172,-1054,1313
9.218366,1161,-1077,1294
9.218484,1192,-1091,1273
9.249419,1200,-1117,1255
9.249589,1256,-1108,1236
9.249723,1255,-1129,1222
9.249856,1262,-1129,1184
9.249984,1259,-1128,1165
9.250111,1277,-1134,1137
9.250239,1287,-1145,1135
9.250366,1289,-1139,1111
9.250529,1282,-1138,1125
9.284722,1279,-1146,1109
9.284862,1274,-1140,1124
9.284982,1262,-1145,1125
9.285099,1258,-1128,1115
9.285217,1240,-1110,1096
9.285334,1227,-1118,1099
9.285450,1216,-1116,1086
9.285599,1211,-1127,1082
9.285719,1212,-1136,1092
9.285837,1224,-1141,1106
9.285956,1236,-1158,1097
9.286074,1246,-1169,1113
9.286192,1260,-1182,1112
9.286310,1279,-1186,1113
9.286427,1299,-1228,1118
9.286566,1309,-1225,1123
9.317049,1315,-1243,1115
9.317186,1348,-1251,1121
9.317305,1353,-1269,1114
9.317421,1356,-1277,1101
9.317559,1354,-1261,1097
9.317676,1363,-1277,1074
9.317792,1328,-1251,1059
9.317908,1346,-1246,1054
9.318025,1346,-1232,1035
9.318141,1333,-1212,1040
9.318258,1349,-1180,1016
9.318377,1358,-1173,1010
9.318506,1340,-1156,1016
9.318626,1302,-1130,1006
9.318743,1259,-1096,1002
9.318858,1252,-1086,996
9.349782,1250,-1072,961
9.349910,1261,-1061,943
9.350024,1290,-1054,905
9.350135,1321,-1065,893
9.350244,1347,-1093,889
9.350356,1360,-1123,901
9.350468,1358,-1159,877
9.350586,1357,-1173,878
9.350698,1340,-1188,873
9.350808,1363,-1205,881
9.350919,1348,-1229,864
9.351030,1328,-1237,866
9.351140,1317,-1250,835
9.377537,1312,-1263,846
9.377669,1330,-1262,822
9.377822,1317,-1265,794
9.377980,1304,-1255,782
9.378148,1284,-1248,757
9.378332,1251,-1249,770
9.378528,1243,-1207,727
9.378723,1252,-1166,716
9.378921,1282,-1148,694
9.379122,1276,-1143,679
9.379307,1321,-1137,661
9.379500,1344,-1132,670
9.407502,1352,-1141,664
9.407634,1350,-1145,701
9.407752,1330,-1141,735
9.407865,1322,-1158,751
9.407977,1320,-1146,777
9.408087,1323,-1164,803
9.408198,1327,-1169,810
9.408311,1332,-1196,815
9.408421,1330,-1209,816
9.408541,1337,-1224,848
9.408653,1335,-1233,846
9.433159,1357,-1263,863
9.433289,1362,-1287,840
9.433403,1359,-1304,849
9.433543,1372,-1317,825
9.433656,1360,-1330,806
9.433770,1371,-1339,779
9.433880,1368,-1348,775
9.433985,1371,-1353,763
9.434092,1356,-1358,731
9.434196,1370,-1345,717
9.466054,1368,-1313,686
9.466186,1363,-1317,648
9.466300,1361,-1319,603
9.466413,1362,-1316,585
9.466557,1370,-1287,523
9.466671,1346,-1298,517
9.466783,1358,-1281,481
9.466896,1365,-1276,468
9.467006,1366,-1262,424
9.467118,1353,-1266,422
9.467229,1351,-1265,409
9.467341,1332,-1269,421
9.467452,1302,-1274,408
9.492343,1297,-1296,418
9.492466,1290,-1298,430
9.492586,1284,-1323,431
9.492691,1272,-1340,446
9.492796,1265,-1361,448
9.492899,1273,-1359,435
9.493002,1272,-1372,453
9.493107,1275,-1380,450
9.493210,1287,-1391,463
9.493314,1292,-1394,448
9.493417,1294,-1392,442
9.522163,1311,-1401,455
9.522272,1303,-1394,450
9.522367,1322,-1399,438
9.522460,1336,-1396,442
9.522561,1365,-1399,433
9.522653,1355,-1395,432
9.522745,1361,-1408,443
9.522838,1369,-1399,410
9.522929,1375,-1422,400
9.523021,1383,-1422,374
9.523112,1403,-1439,363
9.523203,1391,-1454,355
9.543728,1397,-1470,322
9.543844,1382,-1482,305
9.543946,1388,-1501,294
9.544046,1397,-1513,291
9.544143,1391,-1520,265
9.544244,1384,-1531,240
9.544348,1376,-1540,236
9.544455,1382,-1547,215
9.570245,1376,-1552,201
9.570353,1371,-1561,171
9.570448,1374,-1557,140
9.570550,1372,-1554,122
9.570638,1360,-1566,93
9.570728,1356,-1561,71
9.570815,1335,-1553,36
9.570902,1332,-1564,-6
9.570993,1325,-1561,-22
9.571085,1335,-1565,-45
9.589324,1345,-1590,-66
9.589438,1353,-1612,-52
9.589549,1365,-1627,-56
9.589648,1370,-1639,-48
9.589747,1390,-1678,-20
9.589842,1390,-1689,-4
9.589939,1408,-1725,14
9.590033,1406,-1734,12
9.605599,1420,-1749,44
9.605702,1429,-1746,48
9.605794,1442,-1765,42
9.605881,1425,-1768,65
9.605968,1426,-1755,57
9.606055,1424,-1754,61
9.631649,1419,-1746,65
9.631777,1412,-1748,45
9.631886,1418,-1725,68
9.631993,1410,-1718,55
9.632096,1410,-1715,47
9.632196,1403,-1717,29
9.632294,1394,-1702,24
9.632391,1410,-1715,46
9.632498,1421,-1709,16
9.632597,1414,-1707,33
9.632696,1416,-1717,13
9.632797,1429,-1720,12
9.653643,1420,-1710,-27
9.653777,1432,-1721,-15
9.653893,1401,-1706,-17
9.654006,1425,-1719,-33
9.654117,1407,-1724,-22
9.654222,1401,-1717,-12
9.654328,1382,-1721,-12
9.654423,1371,-1716,3
9.654533,1367,-1718,-8
9.670002,1350,-1721,22
9.670118,1349,-1710,14
9.670219,1356,-1720,49
9.670319,1354,-1720,49
9.670418,1357,-1708,69
9.670548,1345,-1694,64
9.699200,1345,-1695,71
9.699318,1338,-1702,68
9.699420,1347,-1686,85
9.699525,1341,-1678,75
9.699630,1347,-1656,104
9.699730,1334,-1641,99
9.699833,1333,-1642,108
9.699936,1325,-1644,115
9.700105,1335,-1636,133
9.700210,1330,-1636,142
9.700314,1318,-1626,131
9.700417,1329,-1621,143
9.727400,1320,-1613,157
9.727578,1327,-1616,163
9.727678,1328,-1603,158
9.727772,1322,-1608,172
9.727905,1307,-1610,193
9.727998,1313,-1613,191
9.728090,1293,-1619,221
9.728190,1288,-1611,241
9.728282,1280,-1607,259
9.728376,1302,-1630,278
9.758335,1324,-1641,337
9.758438,1337,-1658,332
9.758553,1357,-1656,375
9.758642,1351,-1669,408
9.758731,1372,-1665,428
9.758817,1376,-1674,453
9.758904,1373,-1669,491
9.758990,1374,-1673,515
9.759079,1390,-1668,550
9.759200,1398,-1647,550
9.759311,1431,-1658,572
9.759399,1424,-1640,598
9.759493,1401,-1615,625
9.759591,1394,-1585,644
9.785396,1424,-1588,673
9.785541,1431,-1586,679
9.785641,1482,-1576,700
9.785740,1495,-1554,693
9.785838,1500,-1511,691
9.785936,1495,-1503,680
9.786035,1496,-1486,712
9.786132,1470,-1467,708
9.786224,1461,-1465,696
9.814276,1432,-1440,701
9.814415,1436,-1427,699
9.814571,1401,-1411,660
9.814693,1386,-1407,632
9.814815,1361,-1386,633
9.814934,1350,-1394,614
9.815049,1336,-1404,587
9.815160,1327,-1389,571
9.815314,1342,-1389,553
9.815425,1351,-1404,549
9.815545,1350,-1413,524
9.815656,1358,-1424,515
9.845129,1346,-1441,518
9.845250,1336,-1467,517
9.845358,1325,-1456,533
9.845466,1316,-1456,555
9.845599,1322,-1469,580
9.845704,1307,-1474,569
9.845807,1316,-1477,582
9.845914,1309,-1478,576
9.874072,1306,-1484,596
9.874188,1285,-1475,615
9.874290,1262,-1450,617
9.874390,1260,-1442,630
9.874495,1289,-1437,667
9.874594,1310,-1451,674
9.874693,1320,-1427,676
9.905141,1320,-1392,708
9.905309,1310,-1402,722
9.905419,1292,-1385,733
9.905544,1291,-1399,761
9.905649,1283,-1402,777
9.905753,1271,-1398,794
9.905857,1279,-1406,781
9.905962,1282,-1389,766
9.906066,1276,-1412,795
9.906170,1290,-1426,777
9.906275,1297,-1409,822
9.906381,1301,-1409,824
9.906507,1274,-1425,846
9.906611,1277,-1421,868
9.906715,1270,-1441,891
9.906819,1261,-1426,898
9.906921,1266,-1421,924
9.907025,1265,-1410,921
9.907128,1279,-1382,911
9.907232,1279,-1383,906
9.934414,1283,-1352,888
9.934560,1274,-1353,875
9.934668,1247,-1319,864
9.934773,1234,-1310,839
9.934878,1208,-1284,847
9.934974,1224,-1261,856
9.935071,1195,-1260,818
9.935167,1187,-1249,807
9.972072,1165,-1244,797
9.972181,1164,-1226,775
9.972275,1132,-1207,759
9.972367,1094,-1205,760
9.972461,1086,-1191,766
9.972560,1057,-1189,780
10.001869,1042,-1192,819
10.001983,1030,-1221,832
10.002082,1022,-1225,864
10.002179,1020,-1243,923
10.002276,1027,-1271,952
10.002372,1036,-1280,993
10.002474,1052,-1298,1034
10.002584,1078,-1316,1063
10.002685,1174,-1396,1292
10.002827,1176,-1395,1336
10.002931,1170,-1400,1378
10.003036,1168,-1377,1403
10.003133,1128,-1374,1442
10.003231,1101,-1350,1431
10.003327,1050,-1328,1456
10.003423,1033,-1320,1456
10.003521,997,-1297,1468
10.003612,969,-1271,1480
10.033465,940,-1205,1458
10.033603,927,-1179,1455
10.033716,910,-1165,1433
10.033830,902,-1128,1384
10.033941,891,-1108,1412
10.034053,869,-1097,1378
10.034164,880,-1068,1366
10.034274,892,-1043,1361
10.034385,859,-1043,1361
10.034501,852,-1007,1361
10.034607,846,-996,1378
10.034716,843,-973,1382
10.034830,840,-960,1408
10.061999,842,-936,1425
10.062118,845,-947,1404
10.062220,826,-946,1466
10.062318,839,-981,1471
10.062422,907,-1036,1533
10.062537,927,-1057,1565
10.062641,944,-1071,1626
10.062745,966,-1118,1638
10.062890,943,-1211,1746
10.062993,916,-1292,1834
10.090859,1199,-1366,2247
10.090980,1230,-1486,1966
10.091085,1159,-1415,1888
10.091187,1084,-1409,2042
10.091289,1001,-1420,2249
10.091387,944,-1436,2298
10.091509,890,-1403,2407
10.117482,905,-1424,2454
10.117609,941,-1494,2550
10.117712,918,-1560,2559
10.117811,860,-1555,2535
10.149357,833,-1522,2535
10.177905,810,-1470,2523
10.178013,815,-1458,2492
10.178107,825,-1408,2462
10.178202,854,-1388,2461
10.178294,880,-1362,2366
10.208438,891,-1336,2313
10.208562,857,-1281,2240
10.208661,859,-1252,2186
10.208758,829,-1179,2130
10.208857,800,-1164,2091
10.208957,804,-1140,2079
10.209054,787,-1140,2069
10.209151,786,-1122,2055
10.209248,886,-1352,2304
10.209344,879,-1350,2307
10.209441,876,-1347,2277
10.277511,868,-1317,2084
10.306634,888,-1077,2383
10.306767,860,-1305,2034
10.336144,834,-1237,2055
10.336253,831,-1182,2105
10.336349,861,-1212,2031
10.336442,848,-1216,1978
10.336552,794,-1186,1951
10.336644,747,-1166,1981
10.336737,764,-1176,1947
10.336828,783,-1165,1942
10.336919,806,-1203,1900
10.366293,824,-1205,1879
10.366416,830,-1198,1896
10.366541,842,-1210,1858
10.366646,874,-1200,1841
10.366751,886,-1200,1835
10.366854,888,-1214,1819
10.366958,879,-1232,1827
10.367061,876,-1245,1822
10.367165,892,-1250,1802
10.367269,905,-1253,1803
10.367373,994,-1223,1407
10.367478,986,-1211,1401
10.367587,988,-1209,1406
10.367692,975,-1201,1386
10.367796,970,-1190,1382
10.367899,968,-1176,1377
10.368001,979,-1189,1346
10.368104,997,-1163,1340
10.368213,1006,-1163,1339
10.368322,1017,-1148,1294
10.368432,1017,-1144,1292
10.398015,976,-1147,1259
10.398143,956,-1118,1241
10.398256,959,-1107,1195
10.398367,968,-1092,1157
10.398476,991,-1104,1139
10.398603,1025,-1149,1093
10.398722,1045,-1167,1067
10.398838,1029,-1190,1053
10.398953,1024,-1212,1058
10.399070,1036,-1222,1076
10.399186,1001,-1218,1063
10.399302,1007,-1223,1047
10.429073,1008,-1226,1049
10.429188,997,-1241,1033
10.429290,987,-1253,1024
10.429388,979,-1254,1020
10.429494,963,-1265,1005
10.429591,967,-1258,1017
10.429689,970,-1268,1021
10.429786,1001,-1288,996
10.429884,1009,-1306,980
10.429981,1010,-1306,973
10.457601,1003,-1291,1007
10.457729,1022,-1297,1012
10.457841,1033,-1305,1013
10.457949,1018,-1286,1011
10.458053,978,-1260,1026
10.458157,930,-1225,1041
10.458261,916,-1224,1036
10.458367,998,-1207,1026
10.458472,1042,-1221,995
10.458590,1082,-1237,1006
10.458703,1100,-1289,1022
10.458813,1116,-1327,1035
10.458921,1106,-1329,1059
10.487800,1097,-1315,1109
10.487929,1069,-1307,1117
10.488041,1041,-1324,1130
10.488153,1033,-1306,1142
10.488263,1031,-1298,1126
10.488373,1029,-1302,1126
10.488481,1053,-1305,1089
10.488598,1046,-1303,1088
10.488707,1072,-1317,1085
10.488818,1069,-1318,1076
10.488927,1085,-1350,1075
10.489037,1121,-1354,1073
10.489144,1145,-1366,1060
10.489247,1136,-1373,1052
10.519730,1111,-1363,1055
10.519980,1082,-1347,1038
10.520215,1060,-1331,1052
10.520442,1051,-1325,1048
10.520675,1030,-1313,1030
10.520902,1032,-1313,1042
10.521118,1032,-1328,1045
10.521328,1042,-1324,1062
10.521551,1054,-1331,1072
10.521771,1063,-1328,1091
10.521993,1062,-1339,1095
10.548961,1070,-1342,1084
10.549098,1082,-1345,1092
10.549225,1079,-1353,1112
10.549353,1094,-1344,1123
10.549482,1091,-1359,1120
10.549620,1100,-1368,1132
10.549748,1093,-1355,1132
10.549876,1121,-1378,1136
10.550000,1102,-1377,1118
10.550119,1100,-1394,1121
10.550238,1097,-1382,1112
10.550353,1082,-1395,1105
10.581030,1099,-1379,1084
10.581148,1105,-1387,1084
10.581255,1113,-1383,1064
10.581372,1124,-1395,1072
10.581477,1112,-1396,1074
10.581604,1121,-1399,1040
10.581708,1126,-1401,1030
10.581812,1124,-1410,1020
10.581917,1111,-1417,1004
10.582022,1116,-1404,1017
10.582127,1110,-1407,1003
10.582230,1112,-1410,996
10.611416,1099,-1412,987
10.611569,1076,-1416,974
10.611677,1083,-1431,968
10.611782,1075,-1437,972
10.611888,1079,-1444,959
10.611997,1087,-1441,955
10.612108,1095,-1431,959
10.612220,1105,-1433,955
10.612333,1117,-1428,949
10.612446,1098,-1413,942
10.612569,1100,-1412,948
10.612682,1106,-1412,945
10.612794,1094,-1413,990
10.612906,1089,-1416,971
10.613019,1086,-1423,982
10.640823,1084,-1418,980
10.640962,1078,-1437,1001
10.641083,1091,-1441,1008
10.641195,1090,-1443,1003
10.641299,1099,-1479,988
10.641408,1106,-1470,1008
10.641537,1113,-1482,966
10.641644,1111,-1493,987
10.641750,1129,-1500,977
10.641858,1134,-1502,955
10.673651,1108,-1516,953
10.673771,1108,-1495,935
10.673872,1104,-1494,931
10.673972,1094,-1494,930
10.674070,1081,-1471,911
10.674167,1075,-1482,888
10.674332,1064,-1460,881
10.674431,1060,-1446,870
10.674545,1042,-1449,866
10.674644,1036,-1451,850
10.674745,1034,-1445,856
10.704157,1028,-1449,845
10.704279,1019,-1433,847
10.704386,1008,-1431,848
10.704514,1022,-1429,839
10.704627,1011,-1422,856
10.704733,1017,-1417,858
10.704838,1018,-1432,849
10.704942,1016,-1452,872
10.705043,1016,-1461,866
10.705140,1020,-1473,889
10.705238,1033,-1487,917
10.705337,1031,-1496,917
10.731976,1052,-1515,953
10.732092,1059,-1531,938
10.732192,1080,-1545,936
10.732291,1076,-1550,933
10.732391,1083,-1558,901
10.732501,1079,-1556,904
10.732614,1089,-1547,874
10.732715,1070,-1553,846
10.732814,1059,-1547,828
10.732913,1056,-1561,829
10.733010,1038,-1562,798
10.733109,1045,-1553,782
10.733205,1040,-1558,781
10.733298,1040,-1566,756
10.763805,1052,-1559,756
10.763937,1056,-1560,719
10.764053,1057,-1563,711
10.764166,1066,-1582,706
10.764279,1069,-1598,705
10.764392,1075,-1589,698
10.764510,1074,-1596,726
10.764624,1072,-1597,712
10.764736,1071,-1598,731
10.764850,1077,-1612,750
10.790632,1056,-1612,768
10.790742,1070,-1619,769
10.790836,1067,-1609,759
10.790928,1066,-1615,785
10.791020,1067,-1597,783
10.791111,1068,-1616,782
10.791204,1079,-1599,793
10.791296,1078,-1610,791
10.791388,1071,-1608,812
10.791480,1069,-1630,802
10.791575,1082,-1626,828
10.791668,1075,-1611,821
10.818575,1062,-1624,824
10.818690,1077,-1619,823
10.818791,1064,-1621,819
10.818889,1081,-1635,811
10.818987,1072,-1630,791
10.819085,1082,-1624,796
10.819181,1070,-1629,763
10.819274,1051,-1634,777
10.819367,1063,-1636,770
10.819461,1064,-1654,781
10.819570,1050,-1655,798
10.819663,1070,-1675,782
10.846129,1074,-1695,803
10.846252,1059,-1706,802
10.846360,1069,-1677,790
10.846466,1085,-1684,785
10.846604,1108,-1705,765
10.846710,1126,-1733,759
10.846815,1160,-1756,758
10.846919,1159,-1750,748
10.847024,1154,-1780,735
10.856286,1145,-1767,752
10.856398,1116,-1770,722
10.884100,1125,-1783,747
10.884216,1096,-1775,723
10.884317,1108,-1785,710
10.884417,1088,-1798,694
10.884533,1091,-1797,693
10.884631,1076,-1809,661
10.884729,1097,-1815,634
10.884828,1082,-1825,614
10.884927,1093,-1822,593
10.885026,1106,-1833,578
10.885123,1099,-1854,563
10.885224,1118,-1868,515
10.885322,1097,-1897,508
10.920598,1103,-1902,484
10.921056,1105,-1924,470
10.921283,1091,-1920,439
10.921524,1097,-1926,426
10.921741,1087,-1950,380
10.921957,1100,-1951,355
10.922171,1084,-1985,318
10.922384,1085,-1993,306
10.922613,1081,-2008,275
10.922823,1090,-2020,255
10.923004,1085,-2053,233
10.923185,1100,-2069,220
10.923367,1101,-2090,190
10.923555,1100,-2090,190
10.923736,1109,-2133,159
10.923918,1098,-2132,166
10.924105,1120,-2146,148
10.951989,1127,-2161,135
10.952170,1098,-2157,123
10.952305,1099,-2159,129
10.952407,1099,-2171,124
10.952514,1085,-2174,132
10.952612,1085,-2162,102
10.952710,1088,-2176,118
10.952808,1087,-2188,104
10.952908,1066,-2193,101
10.953004,1090,-2189,81
10.953093,1096,-2197,80
10.978902,1095,-2203,82
10.979005,1097,-2188,57
10.979102,1083,-2166,69
10.979197,1095,-2171,56
10.979290,1086,-2153,52
10.979385,1052,-2137,80
10.979478,1039,-2134,56
10.979599,1037,-2113,94
10.979693,1027,-2106,81
10.979792,1021,-2089,115
10.979886,1027,-2088,86
10.979988,1012,-2076,114
11.007255,1021,-2067,114
11.007369,1026,-2074,117
11.007469,1021,-2069,119
11.007598,1018,-2079,127
11.007697,1035,-2076,140
11.007796,1052,-2073,134
11.007896,1041,-2058,147
11.007995,1049,-2046,164
11.008093,1039,-2037,191
11.037526,1048,-2026,192
11.037650,1055,-2034,213
11.037760,1042,-2014,240
11.037866,1047,-2018,244
11.037974,1033,-1995,268
11.038078,1035,-1982,278
11.038177,1028,-1979,289
11.038274,1032,-1983,300
11.038372,1037,-1959,315
11.038469,1026,-1956,330
11.038575,1021,-1938,362
11.038673,1008,-1931,364
11.038770,1020,-1926,386
11.038868,1020,-1916,387
11.065607,1045,-1909,414
11.065731,1044,-1900,422
11.065839,1046,-1875,450
11.065945,1037,-1887,461
11.066049,1036,-1857,490
11.066146,1049,-1859,500
11.066244,1015,-1849,516
11.066341,1036,-1839,521
11.066440,1037,-1848,544
11.066544,1032,-1832,535
11.096274,1015,-1813,563
11.096397,1011,-1811,565
11.096514,1016,-1805,595
11.096617,1012,-1799,609
11.096720,1013,-1800,625
11.096826,1025,-1793,632
11.096931,1029,-1777,641
11.097035,1038,-1765,653
11.097138,1031,-1751,678
11.097243,1038,-1738,684
11.097349,1029,-1727,669
11.097453,1029,-1714,689
11.097575,1019,-1717,680
11.128406,1036,-1689,681
11.128534,1028,-1676,653
11.128634,1031,-1655,667
11.128733,1010,-1630,655
11.128832,1028,-1614,658
11.128936,1031,-1589,642
11.129042,1027,-1597,628
11.129157,1022,-1579,629
11.129275,1014,-1565,620
11.129381,1008,-1550,616
11.129493,1003,-1545,599
11.158195,977,-1526,577
11.158296,965,-1508,570
11.158385,952,-1509,586
11.158473,955,-1492,582
11.158568,965,-1494,594
11.158655,971,-1497,613
11.158744,965,-1511,646
11.158830,964,-1512,634
11.158917,969,-1515,671
11.159004,969,-1518,698
11.159090,968,-1524,719
11.159178,965,-1546,796
11.187115,971,-1565,832
11.187221,977,-1597,899
11.187314,970,-1622,945
11.187402,980,-1621,988
11.187502,996,-1628,1042
11.187602,1028,-1618,1084
11.187700,1049,-1628,1120
11.187798,1048,-1599,1117
11.187896,1073,-1580,1134
11.187993,1082,-1581,1144
11.188090,1088,-1563,1159
11.188187,1084,-1576,1154
11.218416,1098,-1581,1150
11.218544,1086,-1553,1124
11.218648,1081,-1541,1120
11.218753,1070,-1521,1098
11.218856,1070,-1500,1073
11.218957,1062,-1490,1036
11.219055,1045,-1470,992
11.219154,1020,-1443,987
11.219252,1009,-1438,961
11.219346,981,-1437,899
11.219440,949,-1427,869
11.248428,934,-1420,845
11.248554,924,-1420,831
11.248655,924,-1424,811
11.248754,929,-1399,803
11.248851,942,-1389,788
11.248947,954,-1388,786
11.249040,958,-1402,768
11.249133,975,-1412,786
11.249227,974,-1421,800
11.249319,960,-1439,788
11.249411,962,-1456,800
11.249511,947,-1439,821
11.249604,927,-1444,829
11.280665,921,-1446,866
11.280793,910,-1436,901
11.280902,916,-1449,942
11.281007,894,-1440,962
11.281114,903,-1430,984
11.281225,898,-1435,1017
11.281336,901,-1430,1073
11.281447,902,-1430,1071
11.316503,926,-1425,1130
11.316636,922,-1433,1173
11.316751,922,-1426,1210
11.316865,929,-1418,1244
11.316979,949,-1412,1266
11.317098,950,-1411,1260
11.317222,969,-1393,1290
11.317344,969,-1397,1299
11.317463,964,-1401,1302
11.317598,974,-1388,1277
11.317719,971,-1410,1282
11.346605,962,-1413,1261
11.346738,956,-1402,1238
11.346854,953,-1407,1219
11.346969,926,-1410,1180
11.347081,924,-1423,1138
11.347192,899,-1432,1061
11.347304,894,-1451,1004
11.347411,874,-1425,931
11.347545,870,-1417,921
11.347652,875,-1416,859
11.347759,877,-1413,805
11.347866,860,-1485,886
11.347972,852,-1498,819
11.348071,897,-1421,834
11.348170,885,-1459,824
11.348272,832,-1486,842
11.348371,785,-1464,872
11.348469,781,-1502,942
11.375272,788,-1522,986
11.375388,718,-1630,1071
11.375494,847,-1747,1257
11.375592,921,-1856,1357
11.375689,994,-1825,1392
11.375788,946,-1898,1558
11.375886,907,-1890,1633
11.375985,875,-1834,1675
11.376076,883,-1798,1689
11.376168,895,-1740,1685
11.376261,897,-1706,1678
11.376353,968,-1744,1638
11.376450,1000,-1721,1628
11.402632,1008,-1629,1571
11.402746,991,-1557,1499
11.402846,901,-1473,1430
11.402945,845,-1449,1425
11.403042,767,-1406,1399
11.403138,769,-1395,1366
11.403236,762,-1387,1327
11.403334,758,-1393,1289
11.403432,767,-1391,1229
11.403551,759,-1395,1219
11.403650,776,-1377,1171
11.431624,767,-1389,1197
11.431738,758,-1397,1206
11.431840,751,-1401,1216
11.431942,757,-1430,1255
11.432034,734,-1451,1272
11.432125,727,-1468,1314
11.432216,740,-1476,1338
11.463297,754,-1471,1432
11.463424,756,-1480,1475
11.463558,732,-1489,1542
11.491794,734,-1452,1587
11.491914,740,-1453,1615
11.519693,707,-1423,1695
11.519807,701,-1403,1715
11.519908,701,-1379,1779
11.520006,694,-1364,1867
11.520103,673,-1358,1921
11.520200,671,-1353,1965
11.520296,649,-1443,2050
11.520393,657,-1450,2114
11.520499,684,-1461,2164
11.520658,735,-1442,2138
11.520756,744,-1449,2149
11.549139,725,-1434,2128
11.549253,725,-1446,2123
11.549354,728,-1465,2104
11.549452,721,-1462,2079
11.549593,713,-1464,2071
11.549692,705,-1458,2063
11.549792,716,-1474,2058
11.576426,755,-1500,1999
11.576567,757,-1490,1995
11.613675,761,-1488,1977
11.613791,757,-1480,1984
11.613892,765,-1477,1980
11.613995,770,-1470,1974
11.614099,777,-1448,1958
11.643321,783,-1413,1952
11.643436,748,-1407,1932
11.643547,747,-1392,1931
11.643645,754,-1385,1924
11.684430,796,-1369,1872
11.692795,764,-1356,1855
11.692910,759,-1346,1843
11.693011,766,-1342,1827
11.693112,771,-1336,1813
11.693212,791,-1345,1774
11.693309,881,-1372,1483
11.693407,893,-1373,1501
11.699757,904,-1374,1481
11.714771,862,-1370,1510
11.714920,872,-1401,1540
11.715055,862,-1402,1537
11.715176,870,-1391,1541
11.737200,862,-1417,1554
11.737321,859,-1401,1543
11.737428,878,-1406,1552
11.737539,895,-1419,1563
11.737643,910,-1440,1564
11.764968,945,-1436,1532
11.765092,936,-1462,1535
11.765194,937,-1450,1545
11.765290,911,-1451,1526
11.765387,915,-1449,1517
11.765484,901,-1438,1486
11.765592,840,-1294,1250
11.765689,845,-1292,1248
11.765787,838,-1283,1239
11.765886,850,-1280,1235
11.765990,845,-1282,1213
11.766094,845,-1281,1196
11.766198,841,-1276,1176
11.766302,852,-1284,1172
11.766408,851,-1329,1157
11.766546,878,-1347,1141
11.766652,870,-1353,1136
11.766758,885,-1363,1135
11.766863,894,-1373,1108
11.766970,894,-1370,1113
11.767082,905,-1376,1093
11.767193,897,-1383,1083
11.799606,890,-1405,1083
11.799730,877,-1420,1092
11.799837,873,-1415,1082
11.799942,893,-1413,1094
11.800046,884,-1435,1065
11.800151,900,-1435,1077
11.800262,886,-1416,1065
11.800374,892,-1409,1068
11.800484,900,-1386,1037
11.800602,896,-1375,1062
11.800712,890,-1361,1049
11.800823,894,-1341,1045
11.800934,889,-1331,1049
11.801045,878,-1334,1066
11.801155,859,-1339,1066
11.801265,851,-1337,1067
11.801377,833,-1340,1072
11.827885,834,-1346,1081
11.827993,837,-1358,1078
11.828089,825,-1371,1068
11.828181,857,-1365,1063
11.828273,863,-1394,1058
11.828365,889,-1403,1023
11.828456,899,-1424,1031
11.828556,905,-1427,1026
11.828647,912,-1446,1015
11.828738,903,-1443,1003
11.828826,895,-1427,987
11.828914,890,-1420,986
11.858241,876,-1411,989
11.858353,863,-1394,968
11.858449,853,-1398,972
11.858551,863,-1402,980
11.858645,866,-1378,980
11.858738,870,-1379,966
11.858831,880,-1384,956
11.858923,880,-1403,948
11.889176,873,-1397,974
11.889279,890,-1427,980
11.889369,880,-1437,984
11.889461,873,-1451,1004
11.889555,877,-1470,988
11.889647,886,-1505,1013
11.889738,887,-1530,1021
11.889829,903,-1581,1036
11.889921,893,-1584,1034
11.890013,912,-1599,1035
11.890104,925,-1616,1020
11.919822,927,-1658,1010
11.919946,924,-1653,1006
11.920050,941,-1675,951
11.920150,949,-1679,946
11.920249,941,-1691,930
11.920348,938,-1693,890
11.920448,910,-1676,873
11.920554,900,-1654,844
11.920653,888,-1654,834
11.920752,888,-1663,822
11.920852,884,-1660,814
11.920951,868,-1644,809
11.921050,873,-1666,794
11.921150,883,-1673,792
11.921250,901,-1692,773
11.921349,906,-1706,796
11.921448,903,-1730,764
11.948850,902,-1742,794
11.948985,900,-1744,786
11.949083,891,-1746,782
11.949179,897,-1757,768
11.949271,906,-1759,784
11.949363,904,-1756,783
11.949455,890,-1758,790
11.949568,917,-1753,779
11.949661,927,-1758,785
11.949755,937,-1774,803
11.949848,933,-1764,818
11.949939,942,-1752,809
11.950034,948,-1754,811
11.975434,936,-1731,806
11.975547,919,-1703,822
11.975638,929,-1692,834
11.975726,910,-1686,826
11.975814,908,-1673,834
11.975901,897,-1662,828
11.975990,880,-1664,828
11.976078,903,-1682,832
11.976165,908,-1696,839
11.976252,908,-1721,836
12.005238,920,-1709,843
12.005347,916,-1721,836
12.005442,909,-1715,815
12.005544,911,-1721,814
12.005638,927,-1739,788
12.005732,916,-1756,787
12.005826,923,-1752,758
12.005919,933,-1783,778
12.006012,913,-1793,805
12.006105,918,-1803,830
12.033146,904,-1793,753
12.033264,904,-1782,758
12.033367,913,-1805,742
12.033466,911,-1825,741
12.033574,913,-1818,725
12.033672,913,-1817,727
12.033772,909,-1818,710
12.033870,907,-1831,699
12.033968,905,-1826,669
12.034066,923,-1841,666
12.034173,917,-1843,646
12.034278,918,-1852,651
12.034383,905,-1868,650
12.034497,918,-1870,638
12.043673,902,-1887,614
12.071993,918,-1909,599
12.072109,936,-1925,595
12.072209,940,-1923,596
12.072302,945,-1954,555
12.072395,940,-1976,548
12.072496,944,-1977,522
12.072589,942,-2001,498
12.072680,960,-2002,499
12.072773,959,-2006,479
12.072865,948,-2033,455
12.072958,952,-2038,440
12.102577,945,-2063,424
12.102693,946,-2068,389
12.102795,951,-2100,379
12.102895,958,-2097,367
12.102993,956,-2077,346
12.103091,965,-2100,338
12.103188,966,-2100,317
12.103286,976,-2090,290
12.103383,980,-2113,280
12.103482,969,-2100,247
12.103586,954,-2122,227
12.132038,940,-2136,211
12.132150,944,-2141,197
12.132246,944,-2143,158
12.132340,938,-2157,147
12.132432,945,-2168,130
12.132536,927,-2173,106
12.132625,932,-2202,59
12.132713,935,-2218,48
12.132801,944,-2238,19
12.132888,932,-2246,20
12.132981,922,-2255,-48
12.133074,921,-2265,-41
12.133167,934,-2283,-68
12.133258,935,-2292,-74
12.133352,918,-2304,-78
12.164568,925,-2314,-87
12.164695,918,-2314,-79
12.164804,934,-2337,-94
12.164916,925,-2335,-117
12.165023,926,-2331,-101
12.165128,912,-2327,-110
12.165232,924,-2319,-125
12.165335,921,-2307,-110
12.165440,907,-2291,-137
12.165550,897,-2269,-116
12.165650,907,-2277,-97
12.190461,894,-2253,-111
12.190566,891,-2243,-95
12.190656,893,-2237,-101
12.190739,889,-2212,-85
12.190822,873,-2195,-77
12.190904,886,-2174,-75
12.190985,877,-2166,-75
12.191067,873,-2161,-55
12.191149,877,-2128,-59
12.191235,869,-2124,-34
12.191322,849,-2109,-22
12.218317,844,-2089,-29
12.218419,852,-2066,-32
12.218581,844,-2034,-13
12.218684,835,-2017,-20
12.218769,809,-1996,14
12.218854,799,-2000,20
12.218937,797,-1981,19
12.219019,791,-1960,34
12.219101,798,-1945,53
12.219184,791,-1939,68
12.219266,786,-1945,88
12.247193,780,-1927,116
12.247303,781,-1929,156
12.247399,809,-1928,149
12.247503,821,-1917,189
12.247599,814,-1934,195
12.247692,817,-1907,251
12.247784,808,-1904,294
12.247876,819,-1896,326
12.247969,818,-1898,340
12.248063,846,-1893,391
12.277049,846,-1896,414
12.277151,866,-1893,436
12.277242,876,-1880,479
12.277329,886,-1872,501
12.277416,878,-1878,512
12.277511,886,-1858,546
12.277598,895,-1842,558
12.277685,895,-1814,567
12.277771,888,-1812,582
12.277858,891,-1811,575
12.277945,897,-1802,578
12.278033,887,-1806,600
12.291751,883,-1810,589
12.291872,889,-1800,640
12.291975,882,-1822,654
12.292079,885,-1815,677
12.292178,889,-1824,680
12.292277,896,-1804,703
12.292377,892,-1814,711
12.315820,901,-1800,703
12.315947,912,-1798,715
12.316055,919,-1782,729
12.316160,917,-1766,718
12.316266,935,-1740,716
12.316372,923,-1727,723
12.316478,906,-1717,726
12.316593,899,-1708,740
12.316698,907,-1720,759
12.344890,905,-1719,773
12.345001,899,-1732,803
12.345098,908,-1730,766
12.345197,902,-1743,797
12.345295,896,-1755,811
12.345401,894,-1763,823
12.345510,882,-1773,829
12.345610,905,-1782,826
12.345709,914,-1788,839
12.345808,913,-1790,838
12.345909,929,-1783,833
12.346014,937,-1791,840
12.374916,955,-1779,842
12.375016,972,-1784,810
12.375104,952,-1782,814
12.375190,948,-1774,814
12.375277,950,-1742,793
12.375364,950,-1725,796
12.375452,951,-1701,789
12.375546,932,-1684,775
12.375632,918,-1666,755
12.375719,921,-1652,763
12.375805,908,-1644,747
12.406468,909,-1626,755
12.406615,908,-1624,754
12.406717,914,-1628,760
12.406817,899,-1612,746
12.406921,915,-1613,750
12.407021,918,-1607,767
12.407120,901,-1594,771
12.407218,894,-1579,779
12.407316,890,-1576,779
12.407416,892,-1573,771
12.407522,898,-1556,792
12.407620,893,-1539,774
12.407719,883,-1521,776
12.439389,875,-1510,779
12.439506,872,-1506,788
12.439609,868,-1503,824
12.439698,854,-1498,816
12.439786,835,-1501,812
12.439875,806,-1490,823
12.440026,805,-1460,827
12.440116,807,-1456,813
12.440204,797,-1427,822
12.440292,794,-1408,812
12.440380,792,-1393,838
12.440467,790,-1370,821
12.440580,768,-1331,849
12.466966,759,-1291,886
12.467078,766,-1283,902
12.467173,767,-1261,936
12.467269,757,-1256,996
12.467368,757,-1256,1030
12.467468,741,-1277,1088
12.467587,763,-1302,1137
12.467686,770,-1315,1195
12.467787,793,-1337,1243
12.467886,826,-1382,1299
12.499826,833,-1429,1348
12.499972,845,-1483,1428
12.500107,871,-1534,1468
12.500237,902,-1589,1519
12.500368,912,-1619,1538
12.500520,932,-1639,1566
12.500651,938,-1647,1607
12.500784,925,-1648,1630
12.500915,936,-1666,1653
12.501047,922,-1647,1670
12.501171,924,-1643,1666
12.501292,923,-1597,1658
12.501414,918,-1600,1635
12.501544,904,-1542,1617
12.501666,902,-1510,1578
12.531639,878,-1466,1527
12.531754,858,-1451,1497
12.531854,841,-1410,1430
12.531954,810,-1400,1385
12.532054,763,-1393,1330
12.532153,730,-1387,1282
12.532252,717,-1371,1239
12.532349,710,-1356,1214
12.532448,726,-1353,1184
12.532552,702,-1313,1112
12.532651,699,-1293,1141
12.532748,678,-1269,1138
12.561397,692,-1285,1178
12.561535,704,-1268,1216
12.561631,722,-1271,1276
12.561725,730,-1300,1297
12.561818,713,-1283,1337
12.561911,728,-1298,1398
12.562002,730,-1297,1442
12.562095,735,-1300,1511
12.562194,735,-1312,1564
12.590446,743,-1352,1621
12.590578,763,-1367,1655
12.590686,780,-1403,1717
12.590791,785,-1394,1751
12.590895,802,-1417,1779
12.591000,819,-1426,1815
12.591104,801,-1444,1840
12.591207,817,-1443,1863
12.591312,833,-1428,1892
12.591416,836,-1415,1898
12.591526,816,-1391,1923
12.591630,810,-1391,1918
12.591733,799,-1401,1951
12.620032,790,-1388,1948
12.620154,773,-1372,1955
12.620261,778,-1359,1957
12.620364,771,-1335,1947
12.620468,761,-1326,1935
12.620580,748,-1293,1922
12.620685,713,-1266,1912
12.620788,702,-1252,1881
12.620893,690,-1234,1870
12.620995,702,-1226,1854
12.621094,692,-1216,1846
12.621191,696,-1204,1861
12.621288,676,-1210,1862
12.650474,672,-1226,1896
12.650624,665,-1228,1896
12.650746,670,-1234,1923
12.650866,663,-1233,1943
12.650989,696,-1242,1974
12.651108,706,-1209,2010
12.651221,686,-1247,2030
12.651333,698,-1216,2065
12.651444,694,-1202,2112
12.651561,699,-1185,2115
12.651672,723,-1158,2164
12.680698,708,-1160,2167
12.680821,727,-1146,2187
12.680930,736,-1128,2215
12.681032,733,-1103,2256
12.681131,728,-1104,2278
12.681230,738,-1089,2287
12.681328,740,-1087,2304
12.681426,727,-1064,2299
12.681537,731,-1062,2314
12.681635,729,-1028,2319
12.709662,738,-1029,2328
12.709779,738,-1018,2305
12.709880,753,-1008,2301
12.709975,758,-984,2282
12.710069,772,-995,2266
12.710162,783,-964,2228
12.710254,796,-947,2218
12.710348,780,-947,2199
12.710442,784,-952,2170
12.710541,770,-947,2128
12.710634,758,-951,2104
12.710727,754,-941,2058
12.710820,736,-953,2008
12.710913,743,-960,1973
12.740675,741,-951,1931
12.740786,736,-947,1874
12.740884,747,-951,1857
12.740977,757,-952,1819
12.741070,760,-964,1794
12.741162,770,-960,1778
12.741254,767,-978,1738
12.741346,780,-982,1730
12.741437,785,-996,1711
12.741552,778,-1002,1700
12.741649,782,-1007,1704
12.741750,789,-1036,1700
12.741846,795,-1045,1707
12.773224,783,-1075,1727
12.773411,785,-1071,1711
12.773581,780,-1083,1711
12.773731,773,-1091,1700
12.818383,794,-1099,1703
12.818511,791,-1120,1706
12.824050,818,-1129,1694
12.824186,824,-1133,1684
12.861962,838,-1131,1682
12.892938,844,-1133,1654
12.893052,837,-1106,1664
12.893154,835,-1115,1651
12.925441,830,-1097,1633
12.925665,834,-1083,1645
12.925780,847,-1075,1623
12.925886,838,-1078,1620
12.925991,840,-1079,1606
12.926090,818,-1274,1366
12.926189,815,-1280,1349
12.926286,804,-1283,1357
12.926384,796,-1292,1355
12.955207,779,-1298,1370
12.955320,772,-1302,1371
12.955421,764,-1302,1389
12.985183,787,-1292,1373
12.985357,793,-1300,1401
12.985474,798,-1297,1418
13.020220,804,-1297,1411
13.020342,802,-1291,1404
13.020450,811,-1292,1418
13.020587,811,-1282,1433
13.020694,804,-1279,1438
13.020799,799,-1276,1418
13.020903,806,-1635,1019
13.021002,807,-1664,978
13.021101,811,-1682,922
13.021200,814,-1695,868
13.021300,844,-1757,787
13.021399,840,-1788,755
13.021509,840,-1805,713
13.049474,850,-1853,642
13.049620,851,-1864,599
13.049729,854,-1888,549
13.049834,847,-1915,504
13.049952,1024,-3026,-363
13.050064,1035,-3079,-471
13.050174,1029,-3190,-635
13.050286,1032,-3256,-768
13.050396,1047,-3357,-986
13.050532,1031,-3405,-1132
13.050647,1020,-3473,-1326
13.078724,1004,-3610,-1601
13.078850,975,-3631,-1683
13.078965,982,-3702,-1768
13.079084,962,-3715,-1791
13.108399,943,-3725,-1815
13.108561,957,-3707,-1836
13.108683,973,-3714,-1806
13.108801,979,-3724,-1781
13.108919,980,-3696,-1734
13.109043,1000,-3690,-1702
13.109167,1000,-3654,-1658
13.109287,995,-3628,-1590
13.109404,986,-3599,-1530
13.109551,987,-3557,-1496
13.109669,986,-3527,-1453
13.109788,983,-3502,-1394
13.109905,952,-3444,-1349
13.110021,940,-3393,-1291
13.110138,916,-3301,-1241
13.110257,891,-3203,-1247
13.110375,888,-3113,-1222
13.110498,641,-2262,-814
13.138697,625,-2194,-778
13.138822,595,-2087,-696
13.138931,565,-2028,-637
13.139036,540,-1930,-526
13.139140,528,-1871,-442
13.139244,510,-1786,-325
13.139348,482,-1722,-266
13.139453,455,-1652,-147
13.169082,428,-1596,-77
13.169197,385,-1527,51
13.169301,368,-1485,118
13.169402,349,-1424,263
13.169553,350,-1398,366
13.169651,359,-1361,484
13.169751,355,-1321,611
13.169852,345,-1276,772
13.169951,346,-1239,880
13.170055,321,-1201,1059
13.170160,315,-1187,1178
13.200781,277,-1132,1523
13.200911,298,-1092,1700
13.201026,308,-1047,1832
13.201139,304,-995,2016
13.201256,306,-950,2132
13.201371,297,-883,2307
13.201493,297,-837,2418
13.201608,305,-740,2587
13.201722,327,-676,2659
13.201831,449,-38,3123
13.201941,463,112,3242
13.202041,439,225,3308
13.202140,416,382,3432
13.202246,421,508,3502
13.230237,410,659,3646
13.230356,415,744,3685
13.230460,439,864,3769
13.230566,467,913,3832
13.230667,501,946,3899
13.230767,512,958,3907
13.230868,557,931,3978
13.230969,591,920,3977
13.231070,626,846,4017
13.231170,628,767,4026
13.231269,612,650,4040
13.231370,608,547,4034
13.231470,619,424,4033
13.231579,630,337,3986
13.231680,610,212,3932
13.231780,597,126,3879
13.231871,581,4,3819
13.259417,590,-44,3770
13.259554,591,-148,3683
13.259652,575,-216,3623
13.259752,556,-312,3540
13.259849,567,-388,3500
13.259943,593,-509,3381
13.260037,626,-566,3304
13.260130,645,-656,3159
13.260223,648,-674,3080
13.260317,630,-717,2919
13.260411,604,-730,2858
13.287794,591,-746,2701
13.287906,623,-770,2608
13.288000,617,-809,2484
13.288088,591,-820,2411
13.288176,521,-838,2324
13.288263,519,-842,2291
13.288349,530,-873,2224
13.319627,578,-865,2162
13.319754,634,-910,2103
13.319866,651,-954,2067
13.319992,657,-1025,2018
13.320109,654,-1052,2003
13.320221,657,-1084,1959
13.320333,658,-1130,1923
13.320445,680,-1196,1870
13.320578,695,-1220,1806
13.320690,713,-1308,1681
13.320801,721,-1367,1622
13.320913,777,-1451,1498
13.321025,791,-1531,1416
13.321138,817,-1654,1272
13.321250,850,-1741,1168
13.321363,853,-1868,1036
13.321470,859,-1970,934
13.352556,866,-2124,776
13.352695,871,-2225,657
13.352812,863,-2379,478
13.352926,862,-2468,373
13.353038,839,-2615,189
13.353138,843,-2686,76
13.353245,823,-2819,-93
13.353359,832,-2931,-197
13.353473,830,-3062,-411
13.353590,867,-3150,-552
13.353703,861,-3240,-804
13.353822,881,-3361,-1112
13.353940,876,-3428,-1310
13.383019,891,-3479,-1509
13.383157,885,-3560,-1800
13.383277,930,-3663,-2067
13.383395,949,-3726,-2225
13.383532,965,-3781,-2417
13.383656,1010,-3856,-2534
13.383780,1060,-3921,-2692
13.383904,1098,-3971,-2767
13.384027,1160,-4040,-2861
13.384150,1204,-4056,-2905
13.411083,1140,-3716,-2830
13.411208,1301,-3935,-2898
13.411318,1399,-4128,-3047
13.411425,1405,-4149,-3034
13.411553,1398,-4251,-3002
13.411663,1354,-4314,-2972
13.411771,1304,-4303,-2867
13.411877,1267,-4214,-2824
13.411984,1234,-4046,-2754
13.412157,1214,-3988,-2736
13.412272,1143,-3914,-2689
13.412387,1063,-3837,-2650
13.440177,989,-3731,-2601
13.440297,943,-3654,-2564
13.440402,847,-3519,-2515
13.440540,802,-3456,-2472
13.440643,752,-3323,-2389
13.440746,705,-3252,-2322
13.440848,668,-3097,-2204
13.440950,632,-3000,-2151
13.441051,542,-2856,-2035
13.441153,452,-2756,-1937
13.441256,402,-2608,-1742
13.441357,359,-2528,-1554
13.441459,325,-2402,-1302
13.441567,304,-2300,-1090
13.471042,255,-2177,-807
13.471148,250,-2060,-615
13.471244,229,-1941,-326
13.471336,229,-1873,-114
13.471423,250,-1738,174
13.471520,285,-1643,377
13.471608,334,-1463,678
13.471694,355,-1340,890
13.471786,343,-1134,1245
13.471877,269,-1001,1492
13.502423,122,-743,1918
13.502554,34,-569,2196
13.502663,-54,-288,2664
13.502763,-95,-85,3030
13.502862,-68,213,3582
13.502967,-271,498,3944
13.503066,-554,651,4714
13.503165,-374,894,5032
13.503264,-51,1477,5445
13.503362,209,1620,5673
13.503460,648,1625,5955
13.503571,547,1818,6073
13.503669,869,1626,6210
13.503768,945,1665,6291
13.532323,269,1898,6297
13.532443,88,1844,6357
13.532557,41,1904,6345
13.532659,85,1914,6257
13.532766,114,1796,6140
13.532872,112,1702,6082
13.532978,104,1534,5950
13.533083,107,1405,5847
13.533186,141,1192,5642
13.533284,179,1025,5492
13.533380,296,799,5226
13.561283,357,629,5032
13.561379,441,381,4757
13.561464,506,175,4610
13.561558,484,-116,4318
13.561644,501,-202,4030
13.561730,509,-314,3720
13.561815,537,-449,3554
13.561901,593,-713,3282
13.561987,620,-851,3062
13.562077,596,-1013,2773
13.562167,555,-1075,2539
13.585665,482,-1172,2217
13.585771,439,-1223,1998
13.585864,403,-1324,1700
13.585956,392,-1409,1469
13.586049,417,-1548,1102
13.586136,431,-1641,806
13.586224,449,-1804,350
13.586306,431,-1902,31
13.586398,455,-2069,-483
13.586499,463,-2187,-827
13.586597,459,-2382,-1358
13.596313,469,-2519,-1701
13.596510,437,-2694,-2082
13.596667,420,-2840,-2277
13.596793,496,-3159,-2751
13.622925,503,-3319,-2983
13.623044,555,-3561,-3320
13.623142,651,-3724,-3489
13.623239,730,-3939,-3675
13.623336,759,-4107,-3753
13.623432,948,-4283,-3913
13.623536,988,-4358,-3996
13.623637,1111,-4473,-4083
13.623737,1211,-4487,-4166
13.623838,1321,-4516,-4159
13.623939,1381,-4526,-4134
13.649921,1421,-4516,-4135
13.650053,1501,-4429,-4129
13.650161,1548,-4299,-4038
13.650268,1570,-4233,-4012
13.650374,1555,-4138,-3917
13.650480,1514,-4070,-3835
13.650596,1431,-3932,-3703
13.650702,1369,-3828,-3559
13.650811,1268,-3711,-3359
13.650916,1175,-3602,-3203
13.651024,1059,-3399,-2998
13.676875,977,-3240,-2800
13.676990,834,-2988,-2458
13.677088,729,-2774,-2153
13.677186,572,-2421,-1653
13.677286,481,-2187,-1242
13.677380,372,-1821,-577
13.677469,310,-1577,-46
13.677567,245,-1256,785
13.677662,189,-1053,1415
13.707785,85,-697,3118
13.707896,82,-531,4272
13.708001,137,-468,4854
13.708100,223,-209,6047
13.708199,273,-171,6713
13.708297,316,-141,7597
13.708396,406,-150,8138
13.708501,602,-190,8781
13.708600,788,-240,9126
13.708703,1022,-306,9437
13.708808,1182,-343,9515
13.708911,1367,-397,9474
13.709015,1436,-382,9303
13.736734,1446,-332,8917
13.736842,1408,-268,8606
13.736936,1364,-143,8077
13.737029,1313,-106,7685
13.737118,1179,-36,7068
13.737201,1075,-7,6589
13.737282,920,48,5900
13.737359,840,40,5453
13.737438,729,68,4736
13.737530,640,89,4280
13.737614,605,128,3619
13.737697,572,113,3207
13.747794,552,66,2590
13.747911,539,12,2163
13.748022,500,-123,1593
13.774549,491,-254,1194
13.774646,409,-418,616
13.774728,333,-558,207
13.774811,248,-806,-388
13.774895,180,-959,-799
13.774987,151,-1170,-1369
13.775080,137,-1329,-1767
13.775177,187,-1556,-2548
13.775276,201,-1698,-2880
13.809151,136,-1950,-3568
13.809288,228,-2125,-4028
13.809410,194,-2470,-4608
13.809527,9,-2660,-4953
13.809655,-168,-2854,-5317
13.809778,-182,-3137,-5518
13.809895,-79,-3036,-5647
13.810013,187,-3159,-5772
13.810131,583,-3335,-5831
13.810241,716,-3470,-5870
13.810350,796,-3568,-5931
13.810462,469,-3418,-5957
13.810585,37,-3617,-5855
13.810702,-362,-3587,-5710
13.838414,-186,-3591,-5785
13.838547,-128,-3498,-6196
13.838657,1407,-2593,-5989
13.838765,1755,-2666,-6013
13.838868,944,-2926,-6144
13.838971,855,-2798,-6139
13.839073,678,-2528,-6032
13.839170,536,-2402,-5876
13.839266,391,-2191,-5526
13.839364,375,-2008,-5175
13.839459,435,-1870,-4452
13.839559,429,-1847,-3942
13.839657,316,-1728,-3214
13.865479,208,-1613,-2666
13.865600,36,-1442,-1732
13.865707,-63,-1332,-1083
13.865806,-140,-1174,-84
13.865906,-196,-1051,642
13.866005,-261,-924,1922
13.866103,-260,-914,2465
13.897619,-120,-948,4642
13.897745,-49,-903,5814
13.897854,82,-1053,6554
13.897967,163,-1101,7590
13.898079,409,-1107,8221
13.898196,1023,-1050,8960
13.898308,1282,-936,9225
13.898419,1526,-889,9564
13.898535,1625,-865,9735
13.898646,1813,-783,9914
13.898757,1872,-761,9941
13.929612,1832,-721,9813
13.929734,1746,-690,9704
13.929841,1514,-592,9365
13.929953,1268,-475,9072
13.930064,1017,-496,8664
13.930169,725,-279,8409
13.930271,561,-28,7762
13.930373,659,-59,7326
13.930478,826,-248,6653
13.930602,1701,-558,6153
13.930707,960,-406,5170
13.930813,848,-503,4625
13.930918,803,-513,3809
13.931024,831,-540,3217
13.931129,810,-614,2333
13.931234,773,-678,1742
13.931334,741,-800,902
13.931434,722,-896,392
13.931553,684,-1157,-293
13.958462,670,-1377,-678
